# timestamp sample_interval gyro_x gyro_y gyro_z accel_x accel_y accel_z
0.0 0.01 0.0023536457913212044 -0.0050575764953358394 0.6259024404426989 -0.36588623927230357 -0.045021670443099765 0.09988678681887575
0.01 0.01 0.002017276909030185 -0.012437419794535954 0.6247267431220128 -0.2829186797253621 -0.11554677896243878 -0.10262960137601207
0.02 0.01 0.005156477766244433 -0.004043235463325448 0.6218306606619418 -0.4397809964922026 0.06731319061504293 0.06564780675144388
0.03 0.01 0.015511415585837771 0.003025150787091311 0.6318529928430971 -0.1576139853097484 0.09499442896004522 -0.008410679097772657
0.04 0.01 -0.0070173721479271055 -0.007627302709552544 0.6293182625627853 -0.44595013439730935 -0.03885452898895829 -0.18544116593349919
0.05 0.01 -0.003984045682806431 2.259662799764247e-05 0.6399533423968454 -0.30842991559038085 -0.1099088383624669 0.08207907103209207
0.06 0.01 0.010988577452014736 -0.014810572227810516 0.6318101285479231 -0.41380454799358857 0.13105002843841215 -0.013004617732848299
0.07 0.01 -0.0036264360142518577 -0.0018686365148593575 0.6157728212421005 -0.4181985052381439 -0.08959890681310399 -0.04764267971405475
0.08 0.01 0.004930966793032749 0.0041215411332956265 0.6333636460465432 -0.5201211657224275 0.029861211870471138 0.0005161712597126218
0.09 0.01 -0.02093665933068735 -0.0011809514229056534 0.6169805330971606 -0.3314143039400527 0.02186849458010408 -0.02716404129104833
0.1 0.01 0.0026150739390047003 0.013673464659775609 0.6269960403865659 -0.5363146662552545 -0.014269482635043884 0.0405807729142009
0.11 0.01 0.013598184784416815 -0.003924058016033433 0.6216745715447125 -0.44193063593521537 -0.0069672069172496826 -0.20436859711738725
0.12 0.01 0.003040747208672373 0.007149770619690442 0.6355035451737291 -0.46690735448283044 0.028593266601844473 -0.05852995131285896
0.13 0.01 0.016753592889478492 -0.013855869299024883 0.6374401417575508 -0.4527136505325824 -0.13863095836867045 0.19900197805534592
0.14 0.01 -0.006794284115451078 0.0035243755924175696 0.6381128852415187 -0.30580237122720266 0.08443191557926379 0.12387878239335932
0.15 0.01 -0.013694502405856296 -0.006272945279969454 0.6433433493036675 -0.3690790375033183 -0.11599559416840333 -0.06398757177576873
0.16 0.01 0.003605095525631801 -0.0007572982944304126 0.6366362702289501 -0.4268590837003439 -0.194259443671587 0.11605209060768065
0.17 0.01 0.0025683601926520163 0.010707900010841136 0.6312200914334086 -0.3201379026451954 -0.2140904013581289 0.10173979468077021
0.18 0.01 0.0007485112198444935 -0.01133176952286004 0.6297997964782415 -0.18016547940771233 -0.20011716997244086 0.11149609291254403
0.19 0.01 0.010379904126867139 0.005929263053837691 0.6208059128930072 -0.3926654599910659 -0.020889974589652756 -0.07590819947891428
0.2 0.01 0.000999635083317145 0.00935535513170464 0.6444649015995467 -0.39528243149495873 -0.07405609816169194 -0.13529058076722023
0.21 0.01 0.010896031927461866 0.01165677326533618 0.644747168889422 -0.5356984906969855 -0.00767175397662076 0.006249501618904825
0.22 0.01 0.01694244163297075 0.002659227714347771 0.6361592199315014 -0.4722858686937949 -0.0959233594742522 -0.15984114502080213
0.23 0.01 0.01073930560647575 0.005171671841578172 0.6293267874275009 -0.5028501377312533 0.009855286419846614 -0.05226959702988582
0.24 0.01 -0.00899898562337881 0.012772423820883097 0.6434574117654879 -0.3330660184781511 -0.20898386732584776 0.052477522855170655
0.25 0.01 -0.0036837928892016055 -0.01507524334625183 0.6351772431203814 -0.4637147062265827 -0.13820669610596273 0.021943248235698876
0.26 0.01 -0.0015208732931358934 0.002605232588696204 0.6357457450492395 -0.4067247091830857 -0.29986967316029445 0.15771359247730496
0.27 0.01 0.007879732563334896 0.002670800950934229 0.6148797863527995 -0.47448517213409963 -0.11620443007563616 0.06208162880617796
0.28 0.01 0.013371994485017703 3.138605015178901e-06 0.6463212443612812 -0.14336285221569686 0.004305480861139521 -0.10173107114009367
0.29 0.01 0.004003969271935146 -0.003942302052491943 0.6248445381233311 -0.39050335380326706 -0.24310940020336588 0.07879345879469372
0.3 0.01 -0.007383034907616919 -0.017119146043746775 0.6308584770472301 -0.3938897437554428 -0.12610240887744403 -0.09432470392751045
0.31 0.01 0.012339090626551466 -0.0018961350444582708 0.6266491990024848 -0.4613707118988318 0.010904810763651726 0.06358026428083849
0.32 0.01 0.010572477732060706 -0.006782090062652222 0.6277987741411144 -0.2936208533210264 -0.06494562198467708 -0.1149879271492293
0.33 0.01 -0.009961187235705717 0.025498795752866732 0.6436410340168914 -0.371876444339627 -0.1605687710774612 0.13324876247764472
0.34 0.01 -0.00038686432675808375 0.011048636218868764 0.6263050699163326 -0.5187428989524022 -0.10486733458920679 0.08101973145846048
0.35000000000000003 0.01 -0.0054472612455790685 -0.015853736224583782 0.6290602188268851 -0.4141015492328429 -0.07379929642515579 0.0357174978832859
0.36 0.01 0.004252219170197245 0.0012298693168646185 0.6326547727860544 -0.5403429429484643 -0.012254059071614712 0.10769735724218443
0.37 0.01 0.02005153827772285 -0.0012683146523892515 0.6436184110010182 -0.442229013313225 -0.08190948920356647 0.0009136981820228248
0.38 0.01 0.011625383559806007 -0.010725513861432402 0.6167528632366082 -0.4415695664947596 0.08160398279645616 -0.09050610957208907
0.39 0.01 -0.002609411780229016 -0.008403430786940183 0.6299685926688194 -0.3428596515431302 0.06941465232687793 -0.1919393660036392
0.4 0.01 0.012031497623215386 -0.0021134510243528454 0.6394823846974836 -0.37399605362279625 -0.09100213463292842 0.22369711291208594
0.41000000000000003 0.01 -0.0012623804112532303 0.014267312100280307 0.6316120243853395 -0.35731247334551247 -0.09109597709685271 -0.09864485794216311
0.42 0.01 0.007428602132954147 -0.0006780430673367421 0.6199713140416965 -0.2242976712628826 -0.08286101811753112 0.006271616499001546
0.43 0.01 0.01620469760217374 -0.009542281494195795 0.6339789569129873 -0.41626718397938856 -0.021718683073032777 0.06481976714740102
0.44 0.01 0.004304230446548616 -0.00038277258568349517 0.6254876798434198 -0.40034249956444484 -0.25780361782430566 0.25754599675414896
0.45 0.01 0.0001286334786283623 -0.00021667873996339672 0.6163313993970196 -0.31061883153646286 0.06213964487734307 0.21292016743693784
0.46 0.01 0.004675161030373907 0.001861280458491345 0.6314795651240626 -0.4209562091147998 -0.10747471246040946 -0.06299553950078675
0.47000000000000003 0.01 -0.002000481097605433 -0.006864823031499017 0.6357771366176003 -0.4200983363693603 -0.04619700274221074 -0.0875228093150644
0.48 0.01 0.010029290354173529 0.0016120957136408047 0.6226897187532746 -0.33701448554860947 -0.18292865653109852 0.046344252294122375
0.49 0.01 -0.0017999033840489745 0.0030322031260888015 0.6240855735413576 -0.30586452003351416 -0.12990674044060055 -0.07476195769002351
0.5 0.01 0.010647117822221138 0.023034061873217406 0.6436107792335308 -0.506258026740929 -0.14970358310293058 0.10515623425397361
0.51 0.01 -0.001433495685366038 0.011025626902279468 0.6479132560340646 -0.3895002401241966 -0.25655203257267434 -0.06947086799268981
0.52 0.01 -0.0011913013254473681 0.006284332485844718 0.61698640836998 -0.39051357011446786 -0.00755608275692618 -0.005774672565693618
0.53 0.01 0.0073912104871359545 0.007723711825499949 0.6390910795611472 -0.22006676290353192 -0.12997801894829744 0.001297355131263052
0.54 0.01 0.010610138840443723 0.005172529988433045 0.6198303737882643 -0.3342689737689091 -0.06712658382638113 -0.004208353641450325
0.55 0.01 0.008713204702470034 0.01201673375480319 0.6173724174257209 -0.3085316112395791 -0.020390038585835282 0.2192165437777064
0.56 0.01 -0.014844826613191087 0.013820611773047232 0.6100450852570761 -0.39065018450891265 -0.16622734764730296 -0.02953655603749535
0.5700000000000001 0.01 0.010641436055198532 -0.015101586808604444 0.6381739564318227 -0.14095621648320694 -0.06147880079000992 0.026265365896834914
0.58 0.01 0.012523221560664521 -0.009114930143864783 0.6350393477352534 -0.43598226267581963 -0.17618688073960603 -0.09751303883306063
0.59 0.01 -0.010882818459524905 -0.0015088694094552324 0.626933137196265 -0.4029906609114492 -0.09951381540075849 0.13120837433108506
0.6 0.01 -0.009583985740220863 -0.009464702847315706 0.6434873151112134 -0.5051882270670307 -0.21431898018937529 0.2754326942724058
0.61 0.01 -0.013498065260446094 -0.00037707708202109057 0.6296616860697168 -0.4911936918422867 -0.029431614458230893 -0.0430506413646734
0.62 0.01 -0.009032560230811027 0.006551414155086488 0.6364773328532405 -0.3183907849963548 -0.10610056157888056 0.06489617390319645
0.63 0.01 0.0075757182659340954 -0.011779831015984206 0.6141706629857904 -0.3841550481595794 -0.2645962691966019 -0.09788816567830194
0.64 0.01 -0.007566407347601484 -0.0045438000778101565 0.6364628276368337 -0.32405878793708504 -0.20742160310956975 -0.11015882800997277
0.65 0.01 -0.010663866867808427 -0.008723412867452877 0.63117775546665 -0.41401978024624886 -0.1073130864765936 0.00889943337355515
0.66 0.01 0.007341581969321988 -0.012029884032220224 0.6129453903891782 -0.16366695101232448 -0.03251388997983479 -0.14785025562357887
0.67 0.01 0.009308631053625319 -0.01022922558106549 0.6274943783384047 -0.1867385787813661 -0.016650561646881307 -0.2620868973755415
0.68 0.01 0.0016311659729704889 0.018612117072330406 0.6208913986294307 -0.4729343654647301 -0.17776312066579947 -0.0626837470858636
0.6900000000000001 0.01 -0.011276715363141992 0.005380183939352052 0.6375779498362304 -0.3754904332131218 -0.07311505847095526 -0.03541123553541979
0.7000000000000001 0.01 0.004011031638328397 -0.012075430951131757 0.6423087021079579 -0.33039986763404655 -0.08272682860212152 0.0586745169824643
0.71 0.01 -0.0005280993010222924 -0.0134918869933501 0.6332053612634919 -0.25704617809174096 -0.22692858404617056 0.08248325443593194
0.72 0.01 -0.006531212287141763 -0.006942868989635056 0.6333664339189695 -0.23673462785007557 -0.00844450441983255 0.1995888488786009
0.73 0.01 -0.004302555258731025 0.008288890693004612 0.6297717128566872 -0.34245301057447913 -0.22710634009665562 0.042210481442900426
0.74 0.01 -0.020075048640936552 -0.0024770009060517007 0.6236403083869738 -0.30791877981753335 -0.052004347409106005 0.12940273050106366
0.75 0.01 0.007700912685677205 -0.0051492086925318805 0.6444543450767444 -0.31525219335259 -0.17939063971616392 -0.001836581894185866
0.76 0.01 -0.004215619070164276 0.0011951464965292368 0.6271979760256863 -0.445813878681533 -0.35679466258331227 0.044920061609671075
0.77 0.01 -0.023657033955995842 0.0021289794604789076 0.6360478320878532 -0.44602664283114657 -0.16204476215712946 -0.17361331413116327
0.78 0.01 0.00988358046214459 -0.0019253251029458574 0.6164423586723748 -0.4361403244459757 -0.3609447319949818 0.009205428159910474
0.79 0.01 0.014201497375622624 -0.011176857878624753 0.6148049784938704 -0.36264936657371055 -0.24214888197368056 -0.04315339491773004
0.8 0.01 0.021547294798081568 0.0032762992489757765 0.652305737980792 -0.28304841735683206 -0.14170396343464092 0.06698746272373245
0.81 0.01 0.014807426862819327 -0.004662766305074306 0.6158953660450565 -0.40229233106746787 -0.26382300929147806 -0.31293067236270544
0.8200000000000001 0.01 -0.0014752818013614997 0.013154934068538212 0.6287335371317849 -0.2943333551197744 -0.34117642418071437 -0.14108172323000262
0.8300000000000001 0.01 0.008177000237682027 -0.007311168911886478 0.6257126739828855 -0.37032506550290756 -0.1719180199601731 -0.03736030116890537
0.84 0.01 -0.01795621731716914 -0.01268184658668841 0.6239075150285252 -0.20784553295739483 -0.1759530087263363 0.14874818759368025
0.85 0.01 0.0063582489282015065 -0.005762804068180963 0.6379251713997733 -0.5056346483868492 -0.20293307605255775 0.10598572617414898
0.86 0.01 0.0003364243552880079 -0.01095477171156669 0.6195982641141895 -0.28528274241066537 -0.1910488712273672 0.07486543252348987
0.87 0.01 -0.007950310930278365 -0.010224535936147163 0.6253994472868308 -0.37030496955566033 -0.14058984824266313 -0.0073993449696147795
0.88 0.01 0.003675654079160507 0.013481895001594666 0.6158098252423773 -0.3949539217897621 -0.24453665525840523 -0.08784917326756572
0.89 0.01 -0.0037928245175825217 0.007350715760876008 0.643515416608297 -0.3582369572738234 -0.21866616493177793 0.12395742273575344
0.9 0.01 -0.0039741937338259 0.003572262226927219 0.633921173967431 -0.34177579406664044 -0.24696825998843394 -0.04759077718672356
0.91 0.01 -0.01115950402003192 0.012649815659421375 0.6123676021118952 -0.31402769755834303 -0.11819586619392292 0.059112025208204626
0.92 0.01 0.012989840524293287 -0.0034880315772702355 0.6234133503424505 -0.3745825840145578 -0.23789464108337588 -0.06261269808279375
0.93 0.01 -0.004249720960073682 0.0016856346877398933 0.6369655189478663 -0.2563503467109628 -0.2650310382973716 -0.04833691011660163
0.9400000000000001 0.01 -0.00236386734480692 0.0033005345260290787 0.6279000397990068 -0.41975333372390056 -0.17049541909875585 -0.016589971075330414
0.9500000000000001 0.01 -0.01854242638157664 -0.003335917494577472 0.6198708251869991 -0.2570633577628624 -0.39606393352140634 0.17012188483949597
0.96 0.01 -0.006723915916289171 -0.003516282222659001 0.6346541469235926 -0.20485774535547616 -0.3433117103247824 -0.019729349416039113
0.97 0.01 0.021106592368971677 -0.003632926447121412 0.6382852018105398 -0.3091564637248076 -0.4389570987161151 -0.10092323561216031
0.98 0.01 -0.005214118207649059 -0.0031151590754492186 0.6138527027937478 -0.3872471537365626 -0.11947436556209362 0.06067339147967113
0.99 0.01 -0.011889228505047212 0.01243554301892584 0.6281465158426973 -0.20392999672632733 -0.12193201300586469 0.07562079734844541
1.0 0.01 0.013470116820414798 0.0027936075327853367 0.6284863282228164 -0.19348866733054979 0.07057445940445176 -0.16260694687448368
1.01 0.01 -0.01900126732378935 0.012629338033283031 0.617973881750816 -0.3506366408626545 -0.41149641907650625 -0.0863551076548635
1.02 0.01 0.0026325151713987617 0.00045275705413533286 0.6396314774612489 -0.2359591199895461 -0.13352269734311906 0.0038856198887637313
1.03 0.01 0.008765894196002525 0.005950412011609525 0.6294707585518411 -0.14571577975476296 -0.2616176644217953 -0.004824175702186546
1.04 0.01 0.00044268117085919224 0.012969411149868697 0.6305064935654461 -0.29505888744463554 -0.18849508020508002 -0.08754050369980908
1.05 0.01 0.005874753846912689 -0.006345439082227118 0.6025700694941937 -0.45029910104616866 -0.39871730877443945 -0.09143329041293569
1.06 0.01 0.014132823485388192 -0.0009499473918098768 0.6267413437423643 -0.44057703467236586 -0.4368803014111249 -0.03056015412598916
1.07 0.01 0.006237710387276642 -0.004537947295971251 0.6250253575730975 -0.40632150656650823 -0.24547506757700205 0.04093501785558165
1.08 0.01 0.016785765568657622 -0.0031722516879146745 0.6034589121164904 -0.25922318534498706 -0.3173012756178262 0.21341314163010977
1.09 0.01 0.013049763071357396 -0.0003017845705962464 0.6246778175905996 -0.3990909067197995 -0.2970567341377714 0.020293229245225863
1.1 0.01 0.001430827705956988 0.026534268066085068 0.6319850996577705 -0.5158229454128633 -0.26911775508076363 -0.10135893723103251
1.11 0.01 0.012718329803434488 0.003627870278169734 0.6305110551879486 -0.49889396926008456 -0.30348480916094017 0.1691145327905037
1.12 0.01 0.006688009535239735 0.0032811851337494814 0.6303920225107094 -0.418739198403681 -0.41576441025429145 0.17766597941170859
1.1300000000000001 0.01 -0.00360089672731945 0.00878823465454439 0.6262537390058043 -0.20488188836585586 -0.27147720839986195 -0.054505607084637586
1.1400000000000001 0.01 0.0033707835755506276 0.011136354622216798 0.6275399962190086 -0.36993265052185254 -0.19047327879759254 0.25050940273560407
1.1500000000000001 0.01 -0.0014777848912127154 0.002604774654127433 0.6339017172774595 -0.326710247423777 -0.38546201692026916 0.046669038019082607
1.16 0.01 0.011480752528490897 -0.006904857237994708 0.6264873531353539 -0.5111089309006692 -0.3292506979118552 0.10444135153314174
1.17 0.01 -0.005479884664886781 0.00495522955453129 0.6193844340975198 -0.33985616762261317 -0.15932845035436527 0.03119223675850338
1.18 0.01 0.006553008163833775 -0.0028144689873067425 0.620141534013219 -0.19280863394914224 -0.3456281225129376 -0.12918234216148208
1.19 0.01 -0.006723901383485579 0.007970221937174466 0.6203870638223455 -0.24805258408327935 -0.3077987863657778 0.02453740548067547
1.2 0.01 0.0025552047472242566 -0.00011194384921381993 0.619243384299072 -0.3002420554698248 -0.3849560001812854 0.10792900437260391
1.21 0.01 0.004796764957797828 -0.004808246000834298 0.6127689881708784 -0.2173211051070803 -0.25108222255652435 -0.13546817589845303
1.22 0.01 0.007255933615899577 0.0016542362979673258 0.6212171370004507 -0.30098657713350224 -0.2233645382384476 -0.12053451381663959
1.23 0.01 0.005795079367183292 0.019145884227568043 0.6298931140357007 -0.3738611993609184 -0.3154518559780818 0.11662684636650603
1.24 0.01 0.012060962779917335 0.0006886305551892473 0.630615704320083 -0.27117837682668067 -0.1753856646357334 -0.15456461048189268
1.25 0.01 0.0010967494416357386 -0.003343332483943607 0.6487803146187305 -0.3674561929335251 -0.18928551024685444 -0.06786043040422567
1.26 0.01 -0.010291539635555822 -0.015960105173239827 0.6310275669423336 -0.22819765076799967 -0.2875842146887046 -0.01834490449253492
1.27 0.01 0.007790595132032236 -0.00967528958388108 0.6262310308177738 -0.24432226424725695 -0.3314465655914144 -0.028848784716721837
1.28 0.01 0.006198811811533984 -0.016506608688235322 0.634768348656047 -0.2457985721103102 -0.19482372529368092 -0.15190708788767893
1.29 0.01 0.011002264329177286 0.005320358735548857 0.621504365008151 -0.3506386968475909 -0.30316042089144074 -0.00021566127674495846
1.3 0.01 0.007356476125782201 0.0033069890430275184 0.6326381933965105 -0.4027263094106437 -0.20573531780562643 0.08688450282324267
1.31 0.01 -0.0015193113981832591 -0.009248121605469981 0.626636789540068 -0.10907182007914926 -0.13301195579275005 0.052341950830677546
1.32 0.01 -0.004325935188410216 -0.0012900947010556754 0.6281843763865014 -0.2591672236404461 -0.44999734181413664 -0.04917842023013816
1.33 0.01 -0.004012636817409559 0.012549477184548265 0.6409130511553408 -0.3560226852252893 -0.43058703287723676 -0.03853318571610841
1.34 0.01 -0.006790274179963256 0.0019856064480704033 0.6444715028561113 -0.29569653641362403 -0.2312574145022023 -0.1180841745175786
1.35 0.01 -0.008719038212157575 -0.006115251888679804 0.626449389782432 -0.48002438280529036 -0.19631993747488988 -0.10958580039023647
1.36 0.01 -0.0007003742549926828 0.005129855438093408 0.6254957578784918 -0.2989463007696703 -0.3379753238758194 0.295138612861389
1.37 0.01 -0.007595867864175708 0.012056518127363318 0.6354179549121257 -0.044655370653490206 -0.30568363427841805 0.045245458592969516
1.3800000000000001 0.01 0.001171598735369168 0.013244972821044268 0.6258977069824448 -0.12715471493340758 -0.2426772142872047 -0.08449102763104463
1.3900000000000001 0.01 -0.008696798284893241 -0.011260463607689657 0.6269422535548803 -0.368487375777463 -0.2203478459319918 0.05445646445849178
1.4000000000000001 0.01 0.012217420814465356 0.0014684151450905475 0.6276454624287646 -0.3376164848663576 -0.246609395792887 -0.02223985974200596
1.41 0.01 -0.006944794491489299 -0.007554390537254573 0.617834665261001 -0.30303483464686576 -0.4168565468649676 0.13885798761276844
1.42 0.01 -0.0071898272908052846 0.0023326692643337514 0.6260050143102217 -0.18655930646289548 -0.33012554753351986 -0.16278331160821125
1.43 0.01 0.010284570218447992 0.006976157619623754 0.6289546549124214 -0.22224758584001858 -0.30042857889310925 0.03362989890937982
1.44 0.01 -0.005207662114042544 -0.010263124902105566 0.6292466622838664 -0.267519169983241 -0.4437705890989071 -0.1618934763635983
1.45 0.01 -0.003744373016422715 -0.0021707380993313662 0.6309574404474425 -0.21811734740588745 -0.41691177385950995 -0.18905413512310693
1.46 0.01 0.01703900519023566 0.018361022179414998 0.6387724160049976 -0.23046844446043682 -0.2374085847124468 -0.2039899153199091
1.47 0.01 -0.02730488694128396 0.01678625891490912 0.6437425355189755 -0.41329073321189047 -0.1006140096047217 0.012446683165582898
1.48 0.01 -0.003627472290474786 -0.0019960138252481125 0.6301578981132321 -0.267750488129761 -0.3459126842726156 -0.19662036701749047
1.49 0.01 -0.004187539061881765 -0.0018719031982613581 0.6302197993887175 -0.24624372300106073 -0.33529398247155157 -0.0058387980682581345
1.5 0.01 -0.012512130866715378 0.008850539973258173 0.6256551083549976 -0.32862908747790376 -0.3021661992895745 -0.1377895884665138
1.51 0.01 0.003948258133740554 0.00927896160693642 0.6363285225668717 -0.3995712029644551 -0.3361641290723179 -0.019482219284149956
1.52 0.01 0.007009211289320766 -0.0017360804574542985 0.6151225526114231 -0.28845949226202006 -0.3518938148212301 -0.24313119221113333
1.53 0.01 0.005198695833820182 -0.007457475623303791 0.6371049987390989 -0.23803308512118507 -0.4277900459126231 -0.07958047551775284
1.54 0.01 -0.01098395472202304 0.004480954834505363 0.6383467260339217 -0.3386839902976833 -0.3983583819604631 -0.08331254173221721
1.55 0.01 -0.008764180226360668 -0.008238602946731335 0.6273748902154003 -0.09311657399081869 -0.36079890796019404 -0.128196075109294
1.56 0.01 0.011374238108965743 -0.011729794816983271 0.624791128663109 -0.24727311720342116 -0.31111316215727375 0.09885189463881958
1.57 0.01 0.011391040085217175 0.0028186930512341052 0.6238804665623491 -0.2179989870595351 -0.588809729217915 0.02554239649593636
1.58 0.01 -0.009532555696748731 0.0037942600998484973 0.6190918173663095 -0.20557613008692466 -0.21945922213192237 -0.09099179753868492
1.59 0.01 0.006892861088974447 0.01027580571606719 0.6401108486782212 -0.18162188705957188 -0.3973654185886166 0.0582658472335143
1.6 0.01 -0.004654680440396605 -0.008603494453336637 0.6217253513083805 -0.4214348432181859 -0.29492560675808466 -0.06705447591140139
1.61 0.01 0.00183951360591357 0.0026833125290269943 0.6211159349358464 -0.15144578322741248 -0.22030409464777295 0.04706672969389123
1.62 0.01 0.002771475066083529 0.002942834333592956 0.6348075081539428 -0.23322142264149007 -0.43504568581336983 -0.012139731269218917
1.6300000000000001 0.01 -0.02016691699998807 -0.005336695574112036 0.629470938192458 -0.19189349746834486 -0.3104656605932556 0.011618066217286007
1.6400000000000001 0.01 -0.011697384354602602 -0.0008483845133742536 0.6333326502027987 -0.26846997864720257 -0.34926959671021024 0.24846197077578142
1.6500000000000001 0.01 -0.0175215285630262 0.012658243588936824 0.6197848986442379 -0.31290605759263695 -0.2687951476570569 0.04212898309434624
1.6600000000000001 0.01 0.008931586241061227 0.005330465976537354 0.6503403556646982 -0.09621530401456004 -0.4364753319555973 -0.014560785020502865
1.67 0.01 0.02228832950347372 -0.00446704203761241 0.6449729187973905 -0.13329585778099695 -0.2579487948967212 -0.05050102469044926
1.68 0.01 -0.016532923790129925 -0.010268276967867005 0.6380369170133381 -0.22021565207323096 -0.45395772127884204 -0.0089827823403575
1.69 0.01 -0.005994485439237787 0.012806064018503911 0.6363311544759971 -0.22708046501631846 -0.34802770509049985 -0.0845686747635898
1.7 0.01 -0.012266001194673623 -0.008776172744175614 0.6240328376570732 -0.28681600886531 -0.3152297239429814 0.013150469302278171
1.71 0.01 -0.001003523776731395 -0.0052737408187277035 0.6237110130135615 -0.26353073002412386 -0.25556219994744145 0.08367340675221752
1.72 0.01 -0.014114639705036047 0.022656292151388292 0.6203327523369374 -0.22419849361805813 -0.16553525570710925 0.11780904368596368
1.73 0.01 0.0073365893683224 0.01940938420560152 0.630703415179897 -0.1563207101650066 -0.2799257540915489 -0.011170645360688309
1.74 0.01 -0.0055306403063311695 0.005343115453542695 0.6361166584542541 -0.17783937655329743 -0.417946324520823 0.023346871390142146
1.75 0.01 -0.015783050772855266 -0.005547405863992361 0.6251480888198746 -0.22703041303966393 -0.29391597599210156 -0.09557519170771828
1.76 0.01 0.007694563720230236 -0.005036643672880695 0.6516537695888086 0.12863390021808024 -0.30500686599270976 -0.08450545261794529
1.77 0.01 -0.01505473691253506 -0.010010361675758236 0.6171649898905779 -0.3294857581310727 -0.30943184632086146 0.021810893863422255
1.78 0.01 -0.011087158652489094 -0.002475592934771417 0.6340118804544298 -0.07926632602530467 -0.276342706986055 0.03338508676718573
1.79 0.01 -0.016679437126203345 -0.0038312767485019278 0.6352844379924015 -0.21272491137603378 -0.39807477769046473 0.062317893770573375
1.8 0.01 -0.001734071318671455 -0.004587878009245464 0.6376434100939282 -0.01564016012032579 -0.387885398538908 -0.21236605568002412
1.81 0.01 -0.02148994596195041 -0.0018503706262303482 0.630991911137515 -0.18744492022786402 -0.4861051737689484 0.009149812302160385
1.82 0.01 -0.010168496321961637 0.0065046299656697565 0.6317500723343071 -0.03895401044655149 -0.245231477531157 0.07135006907279985
1.83 0.01 -0.0005177125801641833 0.02294074477705384 0.6422869387630055 -0.18485884492834673 -0.3638046018143797 -0.07730828260797823
1.84 0.01 0.014792785946649283 -0.009496150893711664 0.6205677901261302 -0.11622889681308052 -0.31827328344316197 0.15797809467002422
1.85 0.01 -0.0019757612757618833 0.013228182464956448 0.6312177545637934 -0.22417692616114293 -0.26028509773111574 -0.13412328969793133
1.86 0.01 -0.01683608360647904 0.004793195420129216 0.6132279821935291 -0.28261962668058765 -0.36598842125176867 -0.10781938000220902
1.87 0.01 0.010494775688906902 0.003951237556593189 0.6368777834742277 -0.12345878885381877 -0.41730560280190954 0.05943869043636857
1.8800000000000001 0.01 -0.0014865474648617875 -0.01777758947830227 0.6324524693896119 -0.48404535291233153 -0.3929444066428046 -0.029585924408094124
1.8900000000000001 0.01 0.0021684894384381417 -0.0015824527210878553 0.6286277472314422 -0.2286681459463017 -0.1575406588218112 0.1734305342341956
1.9000000000000001 0.01 -0.010352118929110024 0.009796165552232504 0.6239047991002336 -0.28464519048688264 -0.6277776679813272 -0.025248250848418377
1.9100000000000001 0.01 0.012951679329356263 -0.005236792518344108 0.628196894859729 -0.2624355602716365 -0.39584315468130526 -0.0353927283307957
1.92 0.01 -0.016793585597889633 -0.005423073327873668 0.6316913677470577 -0.11714473939520438 -0.37340427092960926 0.10175907676361523
1.93 0.01 0.0013919601798563145 0.02090243587294006 0.6142665160025437 -0.13299200077017811 -0.3055515150823512 0.0066373965192699615
1.94 0.01 -0.007765155069403339 -0.0008293492244247974 0.6343979416707937 -0.06708486425227321 -0.49670496240879436 0.020002667605971275
1.95 0.01 -0.01143478575918653 -0.011414590977374541 0.6386634890385965 -0.1347180347675106 -0.49604436134037927 -0.19440992221789252
1.96 0.01 0.015382456136103574 -0.0029146534869502905 0.6271006346787067 -0.15654288022325355 -0.35122056995840295 0.1424493100790832
1.97 0.01 0.005969192825317557 0.01320335406041387 0.625223057306137 -0.16908598136573189 -0.47803260464217784 -0.08218377199412437
1.98 0.01 -0.005937356588351292 0.0018452711144449606 0.640432670732946 -0.19409595578428207 -0.4551655151032637 -0.025403626433998044
1.99 0.01 0.013496977008277226 -0.005447915325985029 0.6321432986867517 -0.14262373553720592 -0.4407025091185031 -0.16515855504025653
2.0 0.01 -0.02835639251228677 -0.0023600986848974176 0.6300329841424386 -0.050919534966144764 -0.28424340379463187 -0.16803642643482405
2.0100000000000002 0.01 0.014038337450101388 0.01688949906195322 0.6193145480010117 -0.2091100602297295 -0.4176909693874701 0.03778239331458332
2.02 0.01 0.005787217077033506 -0.02363531982327808 0.6264052418385605 -0.049459707496606664 -0.181148059683214 -0.08358763813152742
2.0300000000000002 0.01 0.001169396928627258 -0.01225045138407426 0.6443845574390967 -0.12788272743912285 -0.4266823956703714 -0.0621961843244404
2.04 0.01 0.0030427398590165207 -0.011524875469452753 0.633752422848272 -0.14754942717371844 -0.3144075500147178 0.10077108325395573
2.05 0.01 0.007629358243793005 -0.006682742009422007 0.6291003156007728 0.04375241905231851 -0.4145534391115887 0.05652879900330109
2.06 0.01 -0.011334012738582467 0.003775987385770363 0.6273092356744112 -0.3606119384685468 -0.3972808915655029 -0.09889945944464638
2.07 0.01 0.008752696942358126 -0.0015181098418288277 0.6339382602696667 0.021077282967589553 -0.4763595963992967 0.2217331997377793
2.08 0.01 0.014055045782528641 -0.014420080626662474 0.6249715135926358 0.10518941666857241 -0.4885409152163001 -0.017857289737207026
2.09 0.01 -0.0037673321588716177 -0.008978242249279591 0.6178610249336168 -0.07082362615701757 -0.28940198918389143 -0.048223035589110834
2.1 0.01 -0.001724774091270508 0.003591197949139453 0.6235072319100541 -0.04158237840920283 -0.20594777929107955 0.07674903093801252
2.11 0.01 0.005063943039892652 0.02156760361083576 0.6020065122475396 -0.18463907430470095 -0.3963247820374637 -0.08249240481560877
2.12 0.01 0.005713080068093892 0.017827192219046516 0.6202248482370935 -0.15001016216331395 -0.28278219860208487 -0.20790608843154385
2.13 0.01 0.007811176266298573 -0.004061191085536862 0.6574663959173228 -0.06509214714802647 -0.42421573259430523 -0.02510196859131518
2.14 0.01 0.0014021476881789024 0.005990701297789031 0.6184234825612273 0.08317498963052594 -0.3724906197377193 -0.011689462207174883
2.15 0.01 0.00469364278978972 -0.0026650416469926174 0.6240992900851663 0.03581508637644609 -0.38356231721465495 0.0229518456636825
2.16 0.01 0.010194795591300088 0.0061847134171000955 0.6323600316474642 -0.04193678322409332 -0.6040748736807359 0.07359594200012212
2.17 0.01 0.01703692379083287 0.006922846752848068 0.6169822740603469 -0.26092545179915355 -0.4198901789050071 -0.04053466995807829
2.18 0.01 -0.0017882552435703415 0.021980695244829186 0.6229693122706775 -0.19363411951802234 -0.2657859540589008 -0.08277489955148282
2.19 0.01 0.01129938906947403 -0.013666387928411699 0.6263936615277212 -0.039260559758524154 -0.4897511810582901 -0.03520188781956452
2.2 0.01 -0.01555084192668438 -0.011049973176723484 0.6161091494569819 -0.143937333056906 -0.23761506728805726 -0.02335479033087608
2.21 0.01 -0.007458723786672482 -0.013171117129516484 0.6498021871512774 -0.1037958621241547 -0.30793683170979774 -0.12919840123889062
2.22 0.01 -0.01737066460357132 0.01345008084865693 0.6465339091593045 -0.19742200378236713 -0.36545703490669257 -0.05625954926525776
2.23 0.01 -0.006994533895803737 -0.008941904683401218 0.6351664268121753 0.14403475594357973 -0.5156075806734831 -0.1431803271260824
2.24 0.01 0.012304765824039396 -0.006649696530993895 0.6373841331499043 0.09723070787233222 -0.3656432150837981 -0.05055619108256029
2.25 0.01 -0.004219613862105371 9.772924399787546e-05 0.6270266740110204 0.001659868779928346 -0.6488901633538429 0.021307315402553137
2.2600000000000002 0.01 -0.010321972549980706 0.0004752162241082446 0.6385758350586879 -0.08793999903348076 -0.40470969398319895 0.05270829639077379
2.27 0.01 0.010535451979501209 0.007335193394079858 0.6259444995502162 -0.22448253145982297 -0.22842377620625123 0.12025912577403036
2.2800000000000002 0.01 -0.008837057301169966 -0.00012116303892718944 0.6262699359800596 0.00539318498606535 -0.407105037622808 0.08250330031641771
2.29 0.01 0.009646119999567715 0.009239041967962987 0.6204216363130421 0.06474365973527482 -0.3995734351727827 -0.09540179660876871
2.3000000000000003 0.01 0.01749925530483087 0.004803233970397252 0.6566221874918393 -0.050707004315875936 -0.3593564587484436 -0.1065796077115373
2.31 0.01 0.004406185786314111 0.0015212665722618762 0.6290236758897422 -0.0402874715779262 -0.48477892068588296 0.062051433659769034
2.32 0.01 -3.3208506358856115e-06 -0.005199778988338046 0.6289389701190503 -0.014606407093500275 -0.7188096916857005 0.1021389959023714
2.33 0.01 0.021497359025287117 -0.0026252648287614635 0.6246911168976457 -0.035085374393230194 -0.36021963701372595 0.04711487891071084
2.34 0.01 0.013193261476269591 0.03710706761417444 0.6365745833548335 0.01460825371777024 -0.3330912827527876 -0.22004957784039872
2.35 0.01 0.005507861259235488 -0.01786074388699818 0.6348446334630083 -0.08588722778739054 -0.3680196918685509 0.039267363507937775
2.36 0.01 0.007952198863365933 -0.015499449283409253 0.6206430854637162 -0.0037847401904636813 -0.34093632630209264 -0.12476981695332229
2.37 0.01 -0.01214732774112165 -0.0037638217881047903 0.6210988152900176 -0.03464282266027476 -0.3061246610995489 -0.04635305713911224
2.38 0.01 0.00602842667294746 -0.008495418553826406 0.6061781361749689 -0.07107532519085599 -0.3160957954138998 0.0640283674944809
2.39 0.01 -0.025936368392877794 0.0014254529504784032 0.6337798168773995 -0.11141326512395527 -0.431431242833831 0.013765434112812981
2.4 0.01 -0.009277574025734073 -0.005931725738682311 0.6356670587102157 -0.07049719572889696 -0.3814942697691018 -0.14272210063850907
2.41 0.01 -0.0010223045524572257 -0.0040481942455823094 0.641696266654622 -0.030224682841771294 -0.3404377326551779 0.19776206424607112
2.42 0.01 0.00587299660311312 -0.016694263494642588 0.6319193722892601 -0.04068815410478967 -0.33394758131659147 -0.07499735894493047
2.43 0.01 -0.016710199693652283 0.001234020855212437 0.6431406176950192 -0.015605707264534674 -0.49513555804250625 0.00033840258509511094
2.44 0.01 0.010148437082426184 -0.004391452486584381 0.6262300079143036 -0.0033933780944574946 -0.468327631956573 -0.0031906958503143466
2.45 0.01 0.0018331583989777067 0.003382109911463391 0.6311044301857537 0.06620317319932102 -0.4165433212792905 0.08483010996675341
2.46 0.01 -0.013660677283471844 0.00271281783772886 0.6119698378601175 -0.04771823518270908 -0.4164998773292912 0.07268894239513575
2.47 0.01 -0.00907456735780477 -0.007600144051683649 0.6464459641415793 0.10638307019801582 -0.41726673706248174 -0.03460329742768202
2.48 0.01 -0.006343100820273292 -0.027113767129715687 0.6394929153040058 -0.0020986342468256878 -0.28867101493465186 0.07070869165771637
2.49 0.01 -0.007256843648314534 -0.005819576022139192 0.6155176220776609 -0.0240290712739732 -0.4323613891721394 0.029192056590199814
2.5 0.01 -0.0076031464037412755 -0.00410514971675726 0.6269316749692838 0.027747380575772706 -0.4110799507204478 -0.008134110451652162
2.5100000000000002 0.01 -0.01877371972595812 -0.0004329230067630703 0.646867118005622 0.10391385510758856 -0.49161612885331485 -0.0730785950551021
2.52 0.01 0.0015244489798711598 0.020858080259650965 0.6355759021242066 0.14093945433083122 -0.4138658256559646 -0.0579837112913793
2.5300000000000002 0.01 0.012577258074067246 -0.014409738350878123 0.6421404649602179 0.06007999251764852 -0.3823274301997406 -0.05221527869378822
2.54 0.01 0.0225408627316669 -0.004527825279319355 0.6336690065233195 0.0977274502574765 -0.4012328010603172 -0.005156105748178131
2.5500000000000003 0.01 0.00526960630319264 0.010972266179233522 0.636706020529375 0.002647581972088569 -0.5537795114498921 -0.03694926583132954
2.56 0.01 0.006368128131481472 0.00736864955591125 0.6078127071014322 0.16440228375476248 -0.37502970044969436 -0.037396888092457774
2.57 0.01 -0.017077349263630383 0.004986181546180134 0.6135399524723256 0.04685905237133178 -0.4892505572578205 -0.13602277962579118
2.58 0.01 -0.007964713677741991 0.002633086372878713 0.6282143389204962 -0.04006917504566394 -0.2790496026006433 -0.23495489288932847
2.59 0.01 0.014607977165428793 -0.00311217579289568 0.6149826812754966 -0.08421745257966741 -0.42188206306391174 -0.05336331299829629
2.6 0.01 -0.003425932093893946 -0.010907560335681618 0.6282343429219267 0.0023966604912423334 -0.12055029493012792 -0.04811211923864674
2.61 0.01 -0.0064616513802686236 0.006586003880697647 0.6315628160786017 -0.05160955854951989 -0.32601000859755724 0.052131921683430296
2.62 0.01 0.004496803648389912 0.007408764358880452 0.61905323811339 0.0721284396075977 -0.3875572126944091 -0.001551953958741237
2.63 0.01 -0.014227678524463591 0.0022283038339509886 0.643994865814829 0.010299510245183344 -0.4604786824234761 0.10777404914347975
2.64 0.01 -0.005337832087983619 -0.00487454548013222 0.6324079938346913 0.17116038749648563 -0.4519792385588267 -0.09358801400081886
2.65 0.01 0.004596438329273018 0.01377989230156391 0.6372313611388016 0.04257784458434964 -0.3556710428284551 -0.09619713145545772
2.66 0.01 -0.004324020084504123 0.00420786524903402 0.6327686060400058 -0.03825284880628631 -0.24449496154045167 0.04746506597476094
2.67 0.01 -0.012192122231861032 -0.007895518769789804 0.6219391060537401 -0.10728597870881751 -0.44730695101424467 0.152269929922348
2.68 0.01 -0.0014122148082271308 -0.005298368425086323 0.6315297043165634 0.1864604865735346 -0.3709507730320822 -0.042935151604788245
2.69 0.01 -0.0001568446649931277 -0.006799634434181745 0.6245660262670792 0.009931330275335618 -0.3010627507363607 -0.030639266325459165
2.7 0.01 0.013963061572233657 0.008200163220595993 0.6263002236950157 0.28567792772397727 -0.4871233830229089 -0.07146512706477365
2.71 0.01 -0.022536738966919052 -0.0020872359001882553 0.6269963515794693 0.023168971269517568 -0.4429788935140793 0.13913127716572757
2.72 0.01 -0.004959378552658593 -0.016132739631161123 0.6306269741364118 0.03357945881448925 -0.37482273952717454 -0.02547647051566945
2.73 0.01 -0.0152751440074958 -0.006462724930587772 0.6400774903361149 0.19899328090673815 -0.30606802791823773 0.08337786433659679
2.74 0.01 -0.002663310811517169 0.0034052146862730997 0.6301509590592257 -0.004225204710687588 -0.360836522659416 0.11218025259060119
2.75 0.01 0.012616101224334977 0.002334555020071404 0.6373754462894227 0.1876857316279013 -0.4179487576850194 -0.007435998971589235
2.7600000000000002 0.01 0.008942522119420442 0.0007163293467564623 0.6318177079938491 0.20269479673253749 -0.3792880772934343 0.1349772919349287
2.77 0.01 0.004836401549736978 -0.011179242615063107 0.6318747039914555 0.09049008452299218 -0.27364941037567003 -0.060158501368692045
2.7800000000000002 0.01 0.0032197995430503046 0.010352933305828706 0.6326921073120498 0.1539252686068685 -0.3751339466894231 -0.0167882079622152
2.79 0.01 -0.0012046356863534763 -0.0029543035585663574 0.6300247349480514 0.14208782228882816 -0.3932097439354761 0.10508844492499987
2.8000000000000003 0.01 -0.0027964992053875794 -0.0009643122804048689 0.6280757048514307 0.05517078597621558 -0.18766965335980212 0.09859112881940975
2.81 0.01 -0.001585050756277654 -0.004865654818200371 0.6212727319794975 0.3004039416251515 -0.4724195124279984 0.13741645601797237
2.82 0.01 -0.0047663488520028234 0.01819034682280525 0.6181315720678449 0.005160261646992029 -0.37871683507273757 -0.01749692630041345
2.83 0.01 0.007846497765542478 -0.008280803349125086 0.6175551266404843 0.16332146025878855 -0.3415573451846632 0.014653295247223419
2.84 0.01 -0.0008989349521839736 -0.0014925907689662507 0.6300842249471966 -0.12904209441556375 -0.3895902065728371 0.06370454848757993
2.85 0.01 -0.006777218791690087 0.010863690203439259 0.6213161611798925 0.16031061412441217 -0.22106945387709093 -0.30852166010828147
2.86 0.01 -0.0032195404579793826 -0.008607885509913536 0.6216304343483579 0.11619355180952257 -0.2164211822450976 0.010284530420039425
2.87 0.01 -0.02349691177998247 -0.004702296478099674 0.629773410578203 0.27994333051193865 -0.2714787509699127 -0.27997011104627456
2.88 0.01 -0.00869221433094235 0.0020537037790532946 0.6507356987458767 0.13593339721319808 -0.4153680074884235 -0.02304846632522738
2.89 0.01 0.016141602410482625 -0.0008308880014746536 0.6217588998482576 -0.017651514560926118 -0.23215607537895455 0.15707466558230368
2.9 0.01 -0.0038570422125873693 0.008522939495827574 0.6223300890967901 0.002062355827573553 -0.3479006738857073 0.09015062066293505
2.91 0.01 -0.008703449822989089 -0.0012372304109398724 0.6221216672234335 0.09616287125672292 -0.400209650456682 0.019503979373128547
2.92 0.01 -0.00022048449540993417 -0.006554578820015088 0.618913822953943 0.20790792102356714 -0.3381725665572386 0.11455421224326337
2.93 0.01 0.006246119056293367 0.003751047367676436 0.6392710587122026 -0.10763403006860621 -0.3386341261072442 -0.1356420185027503
2.94 0.01 -0.016635346483164195 0.004473610276045628 0.6364692873633326 0.3490410509377351 -0.3834231049571801 0.011552373162908816
2.95 0.01 0.0077044011866549975 -0.001243292538756718 0.6238978480198305 0.12656509002033176 -0.3554937263429237 -0.08449969039664015
2.96 0.01 -0.019707939359090976 -0.005147675776971347 0.6424967245755404 -0.05666264319363397 -0.3202746736509805 0.050461737456618305
2.97 0.01 -0.014647903884536866 -0.003663392321514731 0.638978996542103 0.17027643496236472 -0.21856185715079385 0.1044774198847104
2.98 0.01 -0.023072989904224534 0.019742180593281082 0.619721762556336 0.08062285646757578 -0.40635349322590647 -0.07504023350772143
2.99 0.01 -0.009721475808716773 0.004330223429859227 0.6414197014809166 0.3376687510960532 -0.5442241099691021 0.0021193153800475244
3.0 0.01 -0.001193650486305689 0.007879093179298014 0.6047251504044154 0.1394744089748247 -0.3435395617651474 0.022338835425852466
3.0100000000000002 0.01 -0.019113658986235082 0.014628374007598843 0.6440445144258284 0.01171821975324315 -0.43602448815048966 0.20985429493915708
3.02 0.01 -0.00959370148009992 -0.007100533561211074 0.6373170296352049 0.007501658756825735 -0.4719035447643116 0.07737741030067641
3.0300000000000002 0.01 -0.01335009080153182 0.005542988458322953 0.6247672358047256 0.1338886533867172 -0.354953362873166 -0.09323829744703041
3.04 0.01 0.006584322913680465 -0.015069185296558997 0.6413947612607913 0.22524582361121917 -0.4821917794722984 0.18034967378250583
3.0500000000000003 0.01 0.0007288201637774187 0.002232516956675444 0.6255091874195466 0.05882717394833811 -0.36089904008943685 -0.001912462878939186
3.06 0.01 -0.019252267618449483 0.005938315936999304 0.6378862978247628 0.3033507247428718 -0.4135633486731928 0.16098410634773502
3.0700000000000003 0.01 0.022300485149011267 -0.009101289380886295 0.6361492784014641 0.19835304168331533 -0.4249941881106545 0.03379887781030246
3.08 0.01 -0.005099068709783181 -0.01737054458439906 0.625885985850696 0.24877760958909362 -0.3497198160292957 -0.1400883229466302
3.09 0.01 -0.008731113878298197 0.006182936054001207 0.6222806988506573 0.22177120286283775 -0.1405922739555634 0.12018539846872521
3.1 0.01 0.004211341047250692 -0.004656416672115194 0.613503107588034 0.16168156662844227 -0.40339013709741967 -0.12460456445095949
3.11 0.01 -0.005452218062572666 -0.007592459125965226 0.636220302905206 0.27579171084455006 -0.31109125810147903 0.06553631039480455
3.12 0.01 -0.01538913866619272 -0.0019017130746731643 0.6311002721022679 0.03586050934608179 -0.23516076151416326 -0.004792464247291712
3.13 0.01 0.002275183034684914 0.016917811980414046 0.6379201648665938 0.08071778996719167 -0.4303090633784129 0.07288068077359819
3.14 0.01 0.004394394101121848 0.0039032925505996857 0.6357315091322866 0.12351141009451583 -0.3472911597337012 -0.08811821757592597
3.15 0.01 0.009283560733831228 -0.0032659765177391513 0.6322410810263566 0.09945206260628148 -0.2613228132108741 -0.18495957165198992
3.16 0.01 0.0004416456622542892 0.0012952536923492447 0.6185766232288064 0.20042814027460631 -0.35628042247723607 -0.015624122162590962
3.17 0.01 0.004934040391588232 0.023414410687600404 0.6279657513263266 0.28884242482542194 -0.36809377083836553 -0.015301593953452304
3.18 0.01 0.0004977417223992225 0.008764809373871876 0.6086343760906839 0.41146118889724204 -0.46266646542470735 0.1442611762053214
3.19 0.01 -0.008281944098463077 -0.0045357865165483 0.6210544967282661 0.007686104366081248 -0.4320191803936729 -0.039982224551961265
3.2 0.01 -0.004032641075221831 0.0020501645565900103 0.6346572963819047 0.2387810663500034 -0.2331786015389516 0.00948764111310738
3.21 0.01 -0.014527409231301634 0.01699704635036091 0.6159599610085958 0.14686413662057565 -0.4576511810495438 0.10666883961363283
3.22 0.01 0.004475291428019794 -0.004552529500145495 0.6040651790321205 0.243508386779174 -0.27397897566271356 -0.03797212408933881
3.23 0.01 0.0003487113363981962 0.008727692045776291 0.6369014248720821 0.17406405920883694 -0.4564946040111334 -0.0536548670607701
3.24 0.01 0.012623178627674234 0.006746133726636176 0.6517283521467753 0.3780043027086561 -0.2617091517840413 -0.028127217084107398
3.25 0.01 0.003944023314791607 0.012864027061481416 0.6332507786613277 0.31843808967908216 -0.3453215936056464 -0.2019036315490139
3.2600000000000002 0.01 -0.014255376946194189 0.003063971250817843 0.6382443902866882 -0.005587603936437396 -0.20311575700271156 -0.11807171984481382
3.27 0.01 -0.002489002340485672 -0.01834217588008291 0.6251096697401971 0.2565824216077527 -0.3345594235190275 0.034373143678559794
3.2800000000000002 0.01 -0.009954848855168901 2.1799591509210403e-05 0.6128719767712725 0.07009255514173555 -0.4087489011698654 0.009894848807475324
3.29 0.01 -0.019802711332700642 -0.02908477417920601 0.6129005250397344 0.19315866428111023 -0.37209369291231637 -0.04428417025158399
3.3000000000000003 0.01 -0.01985932655190244 -0.008019461967508091 0.6301481978574732 0.10789583771443156 -0.21910723326650636 -0.041748464500222716
3.31 0.01 0.0071943740844122965 -0.015206886211443485 0.6497822536354798 0.18042179248713652 -0.3643518211974265 0.045053152672652495
3.3200000000000003 0.01 -0.007160714262427371 0.00011245848904814168 0.6282940035720687 0.2753117790317216 -0.23705875860560913 0.0340978559581172
3.33 0.01 -0.0072543204738142655 -0.0059776480236325815 0.6321736472195785 0.20007423854634687 -0.2560056460428536 0.005190973265713232
3.34 0.01 0.003973451766143707 -0.005142139115006525 0.6360215257577561 0.1318083561156376 -0.39088364570985884 0.038507490414815916
3.35 0.01 0.009274279137522776 -0.004404075743075535 0.6140962971749351 0.16975279352754927 -0.30252279851809083 0.1380094017641272
3.36 0.01 -0.0018373238057739366 -0.008857647355924947 0.6347661185115913 0.17631754224088164 -0.38171584132254205 0.01747235427583987
3.37 0.01 0.02158338895663882 -0.0026748475503112243 0.6117745096748953 0.2096970369866143 -0.517345334357021 -0.08488385116808303
3.38 0.01 -0.01288785383951116 -0.006713075259608066 0.6249741392747872 0.041699885984796986 -0.39251987125909005 0.020520988638163415
3.39 0.01 -0.006209041248021265 -0.015259511795668528 0.6584068997825259 0.14305837714562009 -0.3679051208562134 0.11400699005004221
3.4 0.01 -0.017563058156729563 0.013522222633082922 0.6239060815404381 0.3103337028796794 -0.4679182261353549 -0.011522063617380365
3.41 0.01 0.0024292320518038203 0.007674735313216809 0.608494938010887 0.03849451233539225 -0.38831990973901387 0.019517649847085334
3.42 0.01 -0.01148946663144619 -0.001483654159684457 0.639358668481401 0.11529185741796016 -0.11555750976496171 0.003999728660530897
3.43 0.01 0.007416113996238264 0.009253722297658239 0.6257592691664524 0.17866770189938447 -0.33113058126067374 0.11805300233242158
3.44 0.01 -0.00807379195316602 0.008839434286516021 0.6179705336544496 0.19916247350740962 -0.30062195435228684 0.01454426798005076
3.45 0.01 -0.0019425144231890604 -0.01632896977195643 0.6219523325559166 0.24635929687566532 -0.4734972203515908 -0.07285360499422149
3.46 0.01 0.0025102198112619345 -0.014450825918994275 0.6250874443124659 0.4125873891980299 -0.31359675288159095 -0.018821952547333088
3.47 0.01 0.0132295886057064 0.010180086394975241 0.6215970587160905 0.28456282419832146 -0.3210446025631602 -0.025134161121342164
3.48 0.01 0.010724222248146356 0.016007567694164764 0.6148420015592632 0.2548497290397541 -0.15998078041664351 0.20771820246972786
3.49 0.01 -0.0018830866312661853 0.006041860578234294 0.6442126725661936 0.23268550985981687 -0.3611531000436213 -0.03323588671751506
3.5 0.01 -0.01994379375167347 -0.00671505272162629 0.6481142783845272 0.17744078072564168 -0.5503135955120916 -0.06298293054515103
3.5100000000000002 0.01 -0.010750950683624807 0.008594538813964124 0.645433012816307 0.29264162209330674 -0.3181342487575472 -0.07320790986909903
3.52 0.01 0.005723189073203343 -0.012774635988657159 0.6088431195799221 0.2674314872517767 -0.3818075277006325 -0.0916553886117545
3.5300000000000002 0.01 -0.008610922783465345 0.0042902259615231406 0.6217839953578757 0.10441202033496269 -0.473871559442156 0.01446063096486944
3.54 0.01 0.004270494261134654 0.005303327543881019 0.6478487531142296 0.3101774693789937 -0.4422099413318171 -0.14535442997539624
3.5500000000000003 0.01 -0.017355853304292963 0.007808167733775782 0.6164851693688069 0.08541609560422958 -0.3380816960691486 -0.004077914264569478
3.56 0.01 -0.004613011994343549 0.00664824250516923 0.6264217745320527 0.23299630357278167 -0.3728151852569379 0.01892327612610335
3.5700000000000003 0.01 0.004056773033633609 -0.009113297221427279 0.6206116478552489 0.10545949970599516 -0.2048210288226775 -0.0032368720932945422
3.58 0.01 -0.01835649765585384 0.0018504809658043168 0.6468064555349131 0.3381055341911401 -0.4555497718870656 -0.027081115239732362
3.59 0.01 -0.004701113719323077 0.015582523374269793 0.6144984574935883 0.20126091146549924 -0.39584263303735556 0.0668888139408107
3.6 0.01 0.0074961918250226476 0.007780537758198483 0.6315276335794817 0.332743588663241 -0.44522557827483666 0.11736386852116501
3.61 0.01 0.0072923145112109376 -0.017765274150687908 0.6384784571621135 0.28368955820093816 -0.21552365910804516 -3.826791754214127e-06
3.62 0.01 -0.006121363168848732 0.015427871507602242 0.6444658703178481 0.12629919423616817 -0.3081871386421252 0.007464087336525695
3.63 0.01 0.007715976442452844 0.015934291701180454 0.6055109114779356 0.134168535774983 -0.36574383606732397 -0.2869935572828837
3.64 0.01 0.0018436568040838543 0.0030325876557500244 0.6380629687869239 0.1484692338682468 -0.3898605596064797 0.00250955791953548
3.65 0.01 -0.0021180885734759327 0.00034393053382348416 0.6422024833843759 0.20086858339444755 -0.43351643704993753 0.0552751202360498
3.66 0.01 -0.0060803817090178385 -0.005273951840776288 0.6117069114688518 0.3905311165115127 -0.3260408737721789 -0.005854114364618533
3.67 0.01 -0.0005235656851165803 0.01324035842319127 0.6395332381663431 0.23504650912615244 -0.3251118380632689 -0.13053708822693455
3.68 0.01 0.000706851800460099 -0.014901553346271315 0.6162675706034523 0.3180177801178834 -0.3939934559296535 -0.02219367171938391
3.69 0.01 0.014756419020437391 -0.0022965350241480114 0.6373325863127953 0.33873008256299286 -0.2517168752008556 -0.10210684455228353
3.7 0.01 0.019330939358367303 -0.001372515185580371 0.6382590224926064 0.24971925435710118 -0.22622323418381807 -0.040837346193480985
3.71 0.01 -0.009383770381996627 0.01740366503866474 0.6292396716184071 0.1827960250558341 -0.1647916765761402 0.0885996927811941
3.72 0.01 0.0028166821108841444 -0.006321652603007155 0.6361763138800379 0.1237735830349487 -0.28246442217172 -0.0774846883396097
3.73 0.01 -0.009802427530717257 0.013332299681930143 0.6129348295701029 0.32671773124444137 -0.39436488421830806 -0.07717266770153171
3.74 0.01 -0.009870946512504222 0.0065106641207202135 0.634571630858583 0.14955503722918304 -0.14486056944310166 -0.05142765851400987
3.75 0.01 -0.0028286246262086067 -0.016265359785051912 0.6380252857452993 0.08426832036078619 -0.33776839881459 -0.20798673681253052
3.7600000000000002 0.01 -0.010169818197054006 0.019685043023774274 0.6343587862804777 0.3663577248136496 -0.38347625642946737 -0.24902871066486984
3.77 0.01 -0.01838213814148974 0.0036210976721112675 0.6028525438616934 0.16210073550372162 -0.27534742209972307 -0.12434728922371974
3.7800000000000002 0.01 -0.01102563208319826 0.010492406228525169 0.6192346086136287 0.2487213625429969 -0.29094924330538313 -0.034123560373313766
3.79 0.01 -0.00945349581865292 -0.019296467340342637 0.6278322685866918 0.2336745739392066 -0.25971255031679474 -0.0972064499417078
3.8000000000000003 0.01 0.002084911639803623 0.01209069313251109 0.6343353370537964 0.2432552843272904 -0.2771004826431802 -0.041743239656992684
3.81 0.01 0.009014702277015518 -0.017306274113823374 0.6248492806485253 0.17029312673954206 -0.30228914117677624 -0.10446360222738471
3.8200000000000003 0.01 0.006504527914787388 -0.011401519313006252 0.6434236178950632 0.15568977423442085 -0.24143518854421042 0.022736904157854263
3.83 0.01 -0.002058029790077916 -0.009984463209673736 0.6263285681106864 0.2915756529156543 -0.19894173819742555 -0.19017263280360475
3.84 0.01 0.011915929968551784 0.008858656312538444 0.6287278506944983 0.3977275776432331 -0.4649513172093861 0.07907610735858014
3.85 0.01 0.012196666073840663 -0.0018547329328162786 0.6184696953564539 0.14686024023733493 -0.21147871903440418 0.17361440662373423
3.86 0.01 -0.013452873214303183 -0.0010941686481689451 0.6308929225659015 0.23535939515221682 -0.1797988929100392 0.0684471113582036
3.87 0.01 0.010342073518118545 -0.014722983030255599 0.6353974637559567 0.27308817712356925 -0.21030932525215687 -0.14251610521493493
3.88 0.01 -0.004865454972062301 -0.005020861468893397 0.638061809947406 0.311835263487332 -0.30022564235154936 0.012251820641034951
3.89 0.01 0.011913398532327826 -0.005449499488255168 0.6276189603415786 0.4080299005179742 -0.2619382421546999 0.1406151586098076
3.9 0.01 0.014192253628076168 0.01892407912076488 0.6249593121468898 0.3171025787423045 -0.3055690771210676 -0.010514020522447123
3.91 0.01 0.013652184464535711 -0.011009556188948678 0.6178632618617502 0.44739632481939423 -0.30840388932750284 0.0744176737235286
3.92 0.01 0.002744961347174984 0.03326227517700764 0.6178488553590787 0.3308512904053862 -0.15825200149552415 0.07330850719441762
3.93 0.01 -0.007531803429275812 0.012767291958242092 0.6322740880639586 0.4228980159706231 -0.19157909886025645 -0.09570654541778618
3.94 0.01 0.0010492325762484983 0.0031247887234684196 0.6122768207591698 0.3865316953270955 -0.15795867855068377 -0.1225548554380453
3.95 0.01 0.009379423014351134 -0.002703255365491046 0.6386688578522006 0.30599696825679484 -0.2899808752072186 0.15279798672980593
3.96 0.01 0.0031729413774168585 -0.0017111368088519954 0.641278783284786 0.5097739858753383 -0.1417681780950263 0.2354477384118924
3.97 0.01 0.013791314285297623 -0.015700905841444505 0.6216246367764267 0.2649836591342434 -0.20557181669707306 0.06624781061807224
3.98 0.01 0.009688505753912632 -0.00048364112479566733 0.6264745618335886 0.39187976478441916 -0.14949819899866007 -0.03690453611709309
3.99 0.01 0.0010632377799177641 -0.004602013730023084 0.6381808796416405 0.24188598054655389 -0.15192470315801748 0.13546403168998963
4.0 0.01 0.007214337879615832 -0.012729146800668768 0.6370066659679544 0.4153843985023459 -0.13271763493000072 -0.012762543756337114
4.01 0.01 0.002850750408749349 -0.005249373108635444 0.6227909392756897 0.17711079010915412 -0.1998468656692114 0.02902241421647734
4.0200000000000005 0.01 -0.00630324592705367 -0.004769572170773342 0.6274714748272261 0.12210684091801116 -0.34200735679552013 -0.17825639502667673
4.03 0.01 0.00020006816459496192 0.007198726697598234 0.6228630597471045 0.1920215373098494 -0.29662276626971906 -0.08091866513234602
4.04 0.01 -0.0013975831191231547 -0.0060521983579827 0.6376068863527257 0.3010717532486492 -0.23137110529424565 -0.0348721667725551
4.05 0.01 0.013619883337960666 -0.0034047686868270205 0.6343589744179947 0.3040087824261959 -0.4083287495350668 -0.011797396808431941
4.0600000000000005 0.01 -0.010825208757664828 -0.009974755956339528 0.63364248762275 0.1213787658488732 -0.14034411953761755 -0.025120585808443764
4.07 0.01 0.0015570688055294487 -0.009746785142919871 0.6389206894804577 0.4146540052450911 -0.3883438733437063 0.005957487431679158
4.08 0.01 -0.007608930884960803 0.003531651698298557 0.640162773782037 0.20708003098221398 -0.05471797944987736 0.07725254935864717
4.09 0.01 0.003081276078857526 -0.00038764799615474433 0.619049494682029 0.4176946719048437 -0.09680920202118766 -0.0038768563355003026
4.1 0.01 0.006309100822208202 -0.01453222314736889 0.6097231009982049 0.21460481261796624 -0.36638593314879186 0.08202215449733036
4.11 0.01 0.014969716933320148 -0.0069861645677638156 0.6380468508025818 0.3324019342711866 -0.28670503834853944 0.07234595983718792
4.12 0.01 -0.013486768193996228 0.015571106140671963 0.6335355974624158 0.24410760763286748 -0.2637878160585688 -0.0774804764898777
4.13 0.01 0.007245763566307886 -0.0005430970399657861 0.6111501008695491 0.18390123897302701 -0.06541899892985983 -0.1396266609989135
4.14 0.01 -0.001339427148290156 0.008379217578791077 0.632696525489265 0.5428084886124137 -0.09341986567828059 -0.09194091975599655
4.15 0.01 0.007737575792780822 0.004033902672130368 0.6302741652144448 0.29370008128042074 0.0775158417401787 0.19145784372570393
4.16 0.01 -0.0006074310274467778 -0.006155875764050092 0.620261953004534 0.30037705374329937 -0.2728838852898237 0.07645698339137486
4.17 0.01 -0.012288332120876011 -0.014449852180083204 0.6269233313268621 0.42621509331583873 -0.25907040193323533 0.03220400124428783
4.18 0.01 0.010687612803873094 -0.0017404142303720704 0.6292449878919572 0.29907278426377937 -0.21281959779680135 -0.029961241317862805
4.19 0.01 0.0030654958601103745 0.014395089713025982 0.6433863807844861 0.4217401275575052 -0.061478804014282795 0.2425039257323176
4.2 0.01 0.006722441476297622 0.003867648123422943 0.618897373728159 0.3185161816165995 -0.2337652267731037 0.06162624491235973
4.21 0.01 -0.0057564436586536585 0.0036516609360898776 0.6234271647866937 0.35050114186710846 -0.314073499231694 0.030536194001317553
4.22 0.01 -0.006344363853400333 0.009512328363034558 0.6288349997599878 0.4503296768146968 -0.1497204797906835 -0.0011729315637250871
4.23 0.01 -0.0028608201022272146 -0.00010326926523700497 0.6513164612271828 0.24385006556391947 -0.1593166572531436 -0.02793714223037379
4.24 0.01 -0.001394606649405169 -0.011238341138334869 0.6285042803073105 0.23375938135744695 -0.20698320806065318 0.012614329670996223
4.25 0.01 -0.0006816628448603066 -0.002910813159255728 0.6284972701585304 0.38663191157266574 -0.09245136695068824 0.06234887544921372
4.26 0.01 0.010507573188116279 -0.0015510866699620213 0.6187717078728356 0.4434991409190288 -0.09292355959905697 0.1126630086809448
4.2700000000000005 0.01 -0.007391336383468805 -0.01025084405447596 0.6389184474027421 0.13775234820713816 -0.2380587256393722 -0.07380803025187359
4.28 0.01 -0.004836823734704283 0.007375008779561081 0.627693149578523 0.19767865021216247 -0.21389584610972628 -0.06414033354063595
4.29 0.01 -0.00931980679904153 0.0023825409348819946 0.6116000868521054 0.36517051104387127 -0.1156935692271785 -0.038365182330525674
4.3 0.01 -0.0011530497048711263 -0.0012954970159050488 0.6178072413455643 0.3163778818490648 -0.18781720299695315 -0.020001331267078648
4.3100000000000005 0.01 0.0059859002567799755 0.0016845449020346675 0.6173378285479002 0.40707994482169035 -0.09559607673913569 0.015408745240035585
4.32 0.01 -0.002076970962503072 -0.004387800580984297 0.6282156554611134 0.4915083585905332 -0.03853201545193202 -0.07969081644841047
4.33 0.01 -0.005620990573730912 0.010383723044207665 0.6179028854037918 0.35077982625435794 -0.28900015141341395 0.14666042219274134
4.34 0.01 -0.009911009680035079 -0.020312442969984357 0.6087177660334957 0.3774866275108641 -0.034814754323720554 0.16562883839552855
4.3500000000000005 0.01 -0.007578841858913838 0.0010239977634567067 0.6301286326832437 0.4902547196400252 -0.03544714243273703 -0.0499207081708784
4.36 0.01 0.006228982311548526 0.01817329143088171 0.6328498354825028 0.5249819017721785 -0.21790838986403013 0.04274702948049285
4.37 0.01 -0.005362443273700542 0.00018518450392844305 0.6377085329997925 0.5664139547802851 -0.10873177364002468 0.07922786459173023
4.38 0.01 -0.014203139449661372 -0.0007554342771690137 0.6256836318306215 0.31655168304628944 -0.046646234348328874 -0.17266972087812343
4.39 0.01 -0.007636799756448241 -0.011379735565820535 0.6261263263811326 0.4041767294716833 -0.18358915841028683 -0.08786027591608457
4.4 0.01 -0.005039179512641921 -0.017719017180290314 0.6187649583428494 0.23502951387662604 -0.27647035396179237 -0.09801284234652655
4.41 0.01 0.01577272311093086 0.009351712844119585 0.6236298669318318 0.407246849845821 -0.09013225739984485 0.0017054627409658109
4.42 0.01 -0.012300731486903202 -0.0005943707709091366 0.6258550797182433 0.5384617304164365 -0.22645720019321477 -0.25979621827135496
4.43 0.01 0.00578511713987363 -0.008600142269788263 0.6199630109032818 0.3346447174634246 -0.06856228273876605 -0.0417028934612293
4.44 0.01 -0.007180493672979247 -0.0024693447289863605 0.6116142909201134 0.2050375333023568 -0.08696811672580673 0.13992775204520352
4.45 0.01 -0.00602705377116629 -0.01648650276992177 0.633611451714163 0.28785890065992004 -0.26816692268296805 -0.043170273627721883
4.46 0.01 0.0029028790856604402 -0.004988627153074391 0.6301512990005256 0.3488984968448827 -0.09116088918248742 -0.16610160348813288
4.47 0.01 -0.012358115587967549 -0.007998541828917804 0.6111893904893158 0.5178352201512424 0.010758487750574114 0.11183131621756189
4.48 0.01 0.002130480788111459 -0.022538574810898188 0.6160985283318774 0.37574236165454816 -0.01384821287742996 -0.1275215935814363
4.49 0.01 0.01706676893076889 -0.00763358208161404 0.6572774099706562 0.43118216925700414 -0.17846180207268383 -0.05938743524363621
4.5 0.01 -0.010466916723528308 -0.009198839303098179 0.6372955223584007 0.46927263912979883 -0.06634613302034223 0.02361461188379924
4.51 0.01 -0.015068083230125496 -0.019337216722382828 0.6349223364070827 0.5121968889973256 -0.1525691295531473 0.13878987726289121
4.5200000000000005 0.01 0.0034225692819508957 0.007507959742350491 0.6269411057853659 0.45532190830384517 -0.05805879681211085 0.06373616994150354
4.53 0.01 -0.012654614884247802 -0.004812451238344764 0.6294964587837849 0.28551987203522367 -0.15858352188839842 0.0026300925580195525
4.54 0.01 0.0067651629225223345 0.008485241510561991 0.6391205805338152 0.37873313591710434 -0.04089725945164388 -0.013508534363902397
4.55 0.01 -0.01726866283901271 0.010186762804733376 0.6376705642876388 0.31905691549749465 -0.2421651684852232 -0.03171425017945178
4.5600000000000005 0.01 -0.006546117141879573 0.0011604998636617527 0.6424531142363339 0.5267356180534424 -0.02837655458739577 -0.15424972171062176
4.57 0.01 -0.013428337420994587 -0.008503788684278769 0.6303527251800268 0.3678617984155582 -0.050262388323804336 -0.10729466902218053
4.58 0.01 0.0027267161930721487 -0.025374923981984408 0.6335529066747669 0.4034033599966481 -0.12793053802533613 -0.09088343335280946
4.59 0.01 -0.0012966889730312051 0.0022022654938713376 0.6319803921399756 0.18905385841707117 -0.16296524800111634 -0.13404231573206676
4.6000000000000005 0.01 0.0027549324047058065 -0.010070968958065153 0.6422128128972532 0.38442706975507146 -0.09887442673736158 -0.1888242336661209
4.61 0.01 0.0033778200332945547 0.003471224978293348 0.6018757506992296 0.29626733968531077 -0.04667531726898809 -0.13261829604206388
4.62 0.01 0.016896717302425875 -0.011017459981473021 0.6304083970272529 0.37890974308280995 -0.10584650020166934 -0.1453773745357555
4.63 0.01 -0.0034496938949138832 0.007660932459952962 0.6347386884569952 0.2639758137749449 -0.08463321658960378 -0.001303971322423352
4.64 0.01 -0.011063106721669737 0.014492314368138828 0.6296319754912598 0.45251332943378597 0.057012637814854245 0.10284808256424341
4.65 0.01 -0.0010535855557377487 -0.014573584553474484 0.6368249342283346 0.2827208085631608 -0.11784473879536955 -0.11951467209477946
4.66 0.01 0.00339461604659351 0.01434801973567137 0.637316061365452 0.35023611464921367 -0.055715796224575884 0.03809995629095399
4.67 0.01 -0.004727110322453064 0.006634388457067675 0.643779398531788 0.44784272313042095 0.025620435701755623 0.1059774106829049
4.68 0.01 0.003633028350162663 0.004241103647945721 0.6383408796823111 0.30181469566984903 -0.15053889893246541 0.04144283669499369
4.69 0.01 -0.0035000798190314183 -0.006674706313124179 0.6396252972096425 0.34320957467906327 0.05052595553475771 -0.05318373434445636
4.7 0.01 -0.01518780462933228 -0.0008368064543649653 0.6573531481406286 0.21659378929886974 -0.16336253071496026 0.02953683298262551
4.71 0.01 -0.006414116429484331 -0.006558316985565935 0.6251650729555491 0.2496743570717887 0.017282610836086218 -0.00197086947061437
4.72 0.01 -0.01527059939964149 0.0035076452234492758 0.6360845712065345 0.4248752152422123 -0.039499713645908825 -0.11231717392242578
4.73 0.01 -0.02333548102745394 -0.007626255510294222 0.6203120038534341 0.4355719701566042 -0.07680869216828905 -0.03053223178994995
4.74 0.01 0.0049485751041861495 -0.0046532828379225065 0.6202590653684117 0.508759583554262 0.08948526549420682 -0.12068904050472873
4.75 0.01 -0.0009532315577655353 -0.005087853570596681 0.636717941123233 0.677724626635609 -0.08238942242255065 -0.061771978514252715
4.76 0.01 0.001468999765949484 0.002096874115601676 0.6061918574619527 0.38313163546126466 -0.07736059696215156 -0.11059397945647514
4.7700000000000005 0.01 -0.007438305750400929 0.0016421573143277001 0.640035278470206 0.38881049063526796 -0.20028548778937563 -0.10007045691906963
4.78 0.01 -0.016587969727393806 -0.009377296549868542 0.6226575465908758 0.44837430006620077 0.23176352161720068 0.025799481034591176
4.79 0.01 -0.0048052549754858485 -0.0010021879221474243 0.6195287859872941 0.5067256876380125 -0.04910260864069527 -0.085204105494888
4.8 0.01 0.0009455182520348556 0.013236809236559122 0.6275135616654126 0.30925715173711366 -0.05017244187918841 -0.12975896135404646
4.8100000000000005 0.01 0.016020223467884613 0.0036183373549054814 0.6246890235190795 0.3097451043659787 -0.1437063647995684 0.12036514693672025
4.82 0.01 -0.002465211078759135 0.032269282284065955 0.6395204609395229 0.4605865198254826 -0.06088716907692647 0.19443026964374496
4.83 0.01 0.0024619068372803907 -0.004459258219852718 0.6329799533288863 0.29050788534512173 0.00904294977801965 -0.07454920392015779
4.84 0.01 0.002288277471235483 0.005310551253559962 0.6220458738331741 0.33449590455856537 -0.13852153055305994 0.018108258084710147
4.8500000000000005 0.01 0.011283832050909857 0.011958159841814609 0.6227398553371859 0.37806004948884614 -0.1338705526813618 0.08431581757777161
4.86 0.01 -0.007586491814208189 0.0034102837610135205 0.6489575247768797 0.36401357161562475 0.09062626368976992 0.024144114861244348
4.87 0.01 0.00016958716408557877 0.0049441330231307585 0.6403068838303406 0.42539563618895465 -0.021573075069613618 0.11377809535536201
4.88 0.01 -0.0025035033417355125 0.0005688650178895126 0.6320919772377425 0.2340476275023718 -0.0896905703542802 -0.058923182266080926
4.89 0.01 0.020859608919523383 -0.003845033087720814 0.637074364164262 0.4160460849138652 0.06768847038415676 0.03094444838296891
4.9 0.01 0.0008811787724756993 0.002396758842524885 0.5999640800459902 0.3982529074318823 -0.04850418125820218 0.14379536485993186
4.91 0.01 -0.0006391666924059407 -0.006372134828497742 0.6289130341104927 0.6364394350892679 -0.05630781120748361 0.13700435571986058
4.92 0.01 -0.007718918484999058 -0.004455460239931233 0.6295348069815622 0.3379881360164514 -0.13969613182778834 -0.10630840262902344
4.93 0.01 0.009380547008107167 -0.004410830377726532 0.6153223167231184 0.3265213431575566 0.1715949621325535 0.005896172767565751
4.94 0.01 0.01878960413703568 -0.018088156410066916 0.6266623522139516 0.3586861402809494 -0.2165825141073398 -0.1328033424686374
4.95 0.01 0.02270331932819195 -0.0036435328330401157 0.646774607500737 0.514099742603886 -0.02182779228930537 0.13545186562045017
4.96 0.01 -0.004070214847812321 0.0004278899530090175 0.6333241105537861 0.45039020815722264 0.030068984758612406 -0.10650115944486747
4.97 0.01 0.014730410890716767 0.0008506682557744014 0.6357710631569254 0.32849937657541617 -0.023284733451266287 -0.04201165365496525
4.98 0.01 0.00962405930017826 0.006014741431624414 0.6369834835776574 0.4207931449862514 -0.07625211563818947 0.025198085560780112
4.99 0.01 0.015115545918559308 -0.0016483431512682055 0.6420047651720041 0.43762146862277196 -0.06583317358396482 -0.17456012252127695
5.0 0.01 0.00794030370455942 0.0014671121193353851 0.6094593439243194 0.3274348831473121 0.016483276940143766 -0.06267646163183223
5.01 0.01 0.017617613528164298 0.021413012260888917 0.6341911224636728 0.3532070114035697 0.11202603401731881 -0.005280938533730539
5.0200000000000005 0.01 -0.011974119914280244 -0.02173269528507082 0.6244514796041991 0.4892126030485527 0.03821744194772781 0.12807043585326178
5.03 0.01 0.017609201080048098 -0.005152433001956796 0.6310911100687395 0.21939154761198204 -0.04605605063297746 0.049266626650250715
5.04 0.01 -0.01099175894615574 -0.010719269886385538 0.6129136271096913 0.4184298204158392 -0.0972029494239885 0.22184130090823861
5.05 0.01 0.0119914245269947 0.004493363768841629 0.6174357291903791 0.40734527252772107 -0.1357747748368418 -0.040593054822270845
5.0600000000000005 0.01 0.0089802385969061 0.00611387576698414 0.620429213851793 0.3894118055097428 -0.08310765866458064 0.05575928985639855
5.07 0.01 -0.0049713356349109835 0.0010819695820868597 0.6267892824419635 0.288652080123067 -0.163132853656533 -0.1375938674250605
5.08 0.01 0.007160793736977643 -0.01182127244862716 0.6268768557846598 0.20864549630096918 0.04827907731739524 0.19021238696776113
5.09 0.01 0.004978840911867936 0.005412505374343202 0.6180168186435485 0.5118954643281804 0.007943077782437157 0.07682714875529534
5.1000000000000005 0.01 -0.002649502305043364 0.001209749578255797 0.6184730932889848 0.4672192390991606 0.023056813656687103 -0.0337289253970057
5.11 0.01 0.016554232472724233 -0.008093392891663104 0.6178405760216316 0.2544685818843139 0.06569244624515021 0.012502380972326203
5.12 0.01 0.008523861611540307 -0.007179410217611628 0.6211552908053032 0.4199697318927632 0.09147554036022697 0.060074125687493055
5.13 0.01 0.012656191429046846 -0.004330324654374443 0.6158109897992227 0.41771615150014846 0.012714428110920342 -0.03026105012232208
5.14 0.01 -0.009536039616896797 -0.016709843499757532 0.6546800706726921 0.3309421562439133 -0.12572932549547655 -0.07980915512008935
5.15 0.01 0.00804741365894338 -0.013643058507879655 0.6318714366113015 0.3067481236037274 -0.049008583566579535 -0.08221477740797133
5.16 0.01 0.0011944527074053688 -0.00863177506997502 0.6139659224935508 0.35176713045126584 -0.048966584594427404 -0.06277895072301977
5.17 0.01 0.015329079365773823 -0.004014772926749425 0.62153150886899 0.4401685480267508 0.05760878792160567 0.10351376899834322
5.18 0.01 -0.011726483979465603 0.00806497516386781 0.6233781051827789 0.5243290027493956 0.07194726035232832 0.093512080688187
5.19 0.01 0.004803331508956255 -0.01936504661278584 0.62251607675853 0.318632337982582 -0.025998380771622913 -0.07320152249098034
5.2 0.01 0.010816090145258181 0.006783007606664906 0.6325515731372937 0.4763623344675734 -0.05365172927981575 0.023860851552514814
5.21 0.01 0.0016765533604552153 0.0036079717790308127 0.6163652293458977 0.45296614125603735 0.024650403226180534 -0.21063816505558602
5.22 0.01 -0.0016143815078518595 0.003974612705599441 0.6317783897390585 0.29244134703761643 -0.0345356736272038 -0.015253466008715723
5.23 0.01 0.013006869449432384 -0.02360325098922692 0.6386690006760957 0.385543561420241 0.13668267537554718 -0.05628129723822826
5.24 0.01 -0.006099799460878196 -0.002847881574508647 0.6407622416559612 0.4243618512963405 0.18955632246871215 -0.0055297830601091945
5.25 0.01 -0.002580485302438986 0.008795013909600824 0.6294364323050563 0.1967467998539546 0.17303331130717242 -0.05383829300208001
5.26 0.01 -0.006058445827669255 -0.004473426305966946 0.6343464955886327 0.3247738148650716 0.042526885327431 -0.03385224347411958
5.2700000000000005 0.01 -0.002877089537065782 0.00277501008834708 0.6365939302261743 0.46610332150651373 -0.06017039919594179 0.08473038316693468
5.28 0.01 -0.010479992344539635 -0.006751116525203287 0.6284195082789582 0.3644124797846841 0.17114968658441224 0.10694492224364892
5.29 0.01 -0.003420797276037387 -0.0018787296538577945 0.6278239693496449 0.415058113937615 0.059769896184162695 -0.049845166127989254
5.3 0.01 -6.057162232352309e-05 0.004036056738011577 0.6344933065322276 0.4255284900900826 0.04492379576256511 -0.09053706810411985
5.3100000000000005 0.01 0.02248578517553829 -0.006640033737538419 0.6279478531683551 0.4470415407729843 -0.09396062111794312 -0.14268170776288844
5.32 0.01 -0.018469168823557484 -0.004556012759601194 0.6231814084835107 0.5685261746409052 0.06286843590942193 -0.008412144142693465
5.33 0.01 0.01218241376022391 0.009415935647861062 0.6419476844137203 0.32315210595410243 0.014420286533093365 0.056176623342617
5.34 0.01 -0.020892005354966395 0.003972612399378072 0.6211144461666122 0.2070451081311424 0.1502590171907838 -0.11936370705808302
5.3500000000000005 0.01 0.005011485584120697 -0.011964480925870338 0.6270539532646778 0.5821451354967492 0.18219975491916002 -0.03712006523125332
5.36 0.01 0.006058238333122732 0.008218293412211584 0.6458296966843539 0.3579230199485453 0.014188869738232468 0.2335498392222319
5.37 0.01 0.016053444867659944 0.002739353837099871 0.6282675709341464 0.4660170939196799 0.05475933177256693 0.17948227057490873
5.38 0.01 -0.0010605163138606797 -0.015031519234344277 0.6200727260123463 0.3494741074621706 0.1776828537195225 0.013921698353422563
5.39 0.01 -0.023024639013619095 -0.015701739558758938 0.6205121614525821 0.3769241639659074 0.0984454044553969 0.013535474547123989
5.4 0.01 -0.01767379231594557 -0.006782561538611495 0.6228462725458198 0.4759362079882978 -0.03123510231069558 0.12749483121743233
5.41 0.01 -0.020358179028299953 0.003552479040179852 0.6550893221197026 0.3863631934925821 -0.03494231591609537 -0.027205370199696533
5.42 0.01 0.0033075930073078403 0.0058008321812912265 0.6272834287229457 0.39745282375734836 0.08795594847284902 -0.003443638874593143
5.43 0.01 0.0020814461497507507 0.012053023610696012 0.6316027966519776 0.1636467472777043 0.22157578999726213 0.06436944688193072
5.44 0.01 -0.014875591933827688 -0.0014965644656478967 0.6421864456087126 0.4617139597827342 0.13829438422182205 -0.08635166172850182
5.45 0.01 -0.00855405202701199 0.009713783924370768 0.6234413987073294 0.4268359313437839 0.08375105035816163 -0.01940842041009183
5.46 0.01 -0.004268695172127955 -0.0028621395005924343 0.618881741319031 0.41319998615093556 0.06345501182412121 0.06293029594631194
5.47 0.01 0.011602227072669936 -0.0012234830359755034 0.6283319347288359 0.30820519841389055 0.10632594143714452 -0.10939532457293766
5.48 0.01 0.00968025928849713 -0.01046457542339607 0.6247008545790913 0.315514385065805 0.0016261363110565835 0.036382402854294345
5.49 0.01 -0.006003393868777193 0.0067808344645693824 0.6275012714302289 0.5213093658981184 0.1608687564695157 -0.03469306716821837
5.5 0.01 0.004804737695688527 -0.004815088246189952 0.6408632867250579 0.36751062069611035 0.033059274579520986 -0.09667380193950696
5.51 0.01 -0.009736963680214318 0.011989183951016377 0.6413982036946053 0.48021194579448373 0.26391454073728293 0.05666046675073592
5.5200000000000005 0.01 -0.009636659114215115 0.0002383496383972021 0.6138758527242562 0.2871367749344867 0.13059051019292453 -0.11969668844228527
5.53 0.01 0.004202180052912612 -0.004935322912520503 0.6322677343720243 0.31676345387123456 -0.05362927564108269 0.11091545606391547
5.54 0.01 -0.013449993605415734 -0.008257590099923726 0.6194983767472312 0.402811853320381 0.3642696450826698 -0.05976851316735337
5.55 0.01 0.0013882134591510153 0.012648118243815051 0.6203863892096039 0.31135910274363077 0.18700695489585306 -0.01877677534400005
5.5600000000000005 0.01 -0.006030888841139449 -0.0005248196599909389 0.6285516338856554 0.20893340392245216 0.25466037009378534 -0.10541218823905968
5.57 0.01 0.0014221907645657805 -0.006162064386220642 0.625677636035727 0.2840056822309296 0.17915624891639825 -0.06328432079716279
5.58 0.01 0.0038151812454444572 0.008915733548339015 0.6317905161577383 0.3162176949823615 0.11104059829072535 0.09380828241716159
5.59 0.01 0.006251280541729567 0.0014434918611535307 0.6349979955976672 0.4672143720832216 -0.0649196527968193 0.12200118562818307
5.6000000000000005 0.01 -0.0034852573612200507 -0.0024827232412242385 0.6263458049092598 0.4089402027938356 0.11191570638406029 0.0694099853177852
5.61 0.01 0.018018254127619076 -0.012450876397250772 0.6328014074616859 0.3487705396041756 0.2214176213823812 0.033526970071728696
5.62 0.01 -0.007408816550343577 -0.0047893997648028675 0.6200949483442394 0.43373468727518816 0.09814748130073908 -0.1376562056694104
5.63 0.01 0.00950904814367122 0.008121562982767613 0.6296701451341689 0.31989294955284897 0.019507114181625568 0.15414934921267293
5.64 0.01 0.011567754948029143 0.009489749849701834 0.6281810927840222 0.4055453530603843 0.1311780281140384 0.01853654226636064
5.65 0.01 -0.008096027812039669 -0.025017719905760055 0.6265371689796844 0.3606337973173373 0.047906202263254385 -0.07013994748472396
5.66 0.01 -0.0015636409904203786 0.002608260909019067 0.6409465507305867 0.31241938397315144 0.3876468838613026 0.012475627625312381
5.67 0.01 0.0050270453028410916 -0.0002606171666066127 0.6333209526319438 0.45027885529055645 0.09692067253155047 0.12450382786751289
5.68 0.01 0.0004928613725373787 0.004308172124994828 0.6085673000549389 0.3091157205572841 0.22760564574610445 -0.06074051172329942
5.69 0.01 0.0002418235789935732 -0.015149380632551014 0.62568520457796 0.32696202569984206 0.05079819262008359 -0.08228161197879073
5.7 0.01 0.007350446499004784 0.008256924394393919 0.6337176427656921 0.2928815041416946 0.37549053792333664 -0.13865155816677147
5.71 0.01 -0.006462400430087825 0.004547568475664111 0.6166715382053953 0.38649111201370595 0.21118788301256608 -0.013771890140597882
5.72 0.01 0.007098450818846218 0.01810956390230778 0.6303987967336838 0.46479755939806494 0.20000071519100715 0.0345667163611751
5.73 0.01 -0.004054894358279944 -0.01019975603385923 0.6231068053230833 0.3405535862943825 0.07784091611731865 0.17975319998380762
5.74 0.01 -0.0035298922693866664 -0.010569848760659981 0.6192989948660927 0.2964200268305288 0.26320511272368724 0.02490083983969113
5.75 0.01 0.01101888742503366 -0.005153241446407147 0.6184111785884461 0.369296117611463 0.09776643661113157 0.0197972885176613
5.76 0.01 0.008496608716080217 -0.0027041628370997766 0.6051903272828885 0.367534101770647 0.2441325281144069 -0.0030364754071400823
5.7700000000000005 0.01 -0.014786571309945512 0.0029331248103131266 0.6272493528999941 0.3165372410766929 0.1538170513277495 -0.05870626855403321
5.78 0.01 0.002592176448872142 0.0012979330824926289 0.623144777767671 0.44849057817828375 0.18601846510892317 -0.06483007865753447
5.79 0.01 -0.011196701294331661 -0.004913313036329387 0.6206609840710507 0.40877270921439135 0.2191844285780236 0.01592677542301962
5.8 0.01 0.01166234495230422 0.005533123446728171 0.6274176324878925 0.3382184939066721 0.13569123460033777 -0.055687254205458725
5.8100000000000005 0.01 0.004731574231131762 -0.012859920058032975 0.6331067294157783 0.5006370093351599 0.19279331723221807 -0.032159940419964304
5.82 0.01 -0.003996722084157596 -0.009253540368137773 0.6483181865803103 0.15467396573529896 0.21625754271882897 -0.03919984874159446
5.83 0.01 -0.013974908922505158 -0.01980394929621655 0.6163497195490425 0.32725399935541666 0.26314343487965125 -0.01583536572456571
5.84 0.01 -0.009528536471717702 -0.009585275430534316 0.6267883626337608 0.3156582535368121 0.3268419310682672 -0.13006854631891476
5.8500000000000005 0.01 0.006674621082348856 -0.013184180736319771 0.6310690646620191 0.40249207682843796 0.17958081078365012 0.011646588686416895
5.86 0.01 0.011070906448062587 -0.003484600162395954 0.6332143264523807 0.37422999416538966 0.2883684378325328 -0.21041685584292236
5.87 0.01 0.020164636170732452 -0.016953753461644516 0.6228871772064214 0.3422186773849085 0.10385461054548192 0.09968904182245959
5.88 0.01 -0.0064047960803914365 -0.003649570790598633 0.6268096572568265 0.3174134487576647 0.10616868167775494 -0.20216187265093893
5.89 0.01 0.009919807159333518 0.0025600732338382777 0.6220721509072098 0.24334313257271134 0.25452799302454887 -0.1450262968170395
5.9 0.01 -0.017234409483977486 0.00021638481687276086 0.6344303914770526 0.3629217915612196 0.3038710746410773 -0.028801792536731197
5.91 0.01 -0.006789949321711238 -0.0041739850475760384 0.6286323205282652 0.36824887734305367 0.02801109270598426 -0.04244666873456582
5.92 0.01 0.0029282760704385175 -0.005179534497637198 0.6340527329527141 0.4335662902807338 0.2578477464247462 0.03248850291310695
5.93 0.01 -0.000713407014633604 0.00261089618299353 0.6049750760904231 0.12484205419830613 0.18361652099621406 -0.034130051540511845
5.94 0.01 -0.012376635638149112 0.01043097352634482 0.6286791293704036 0.26154069252583856 0.24367475623172347 0.16712739844650304
5.95 0.01 0.0023734784536765686 -0.0069805729431574835 0.6379903073679282 0.007436172233956484 0.3363635958762469 0.023187301321868983
5.96 0.01 0.008973863120142011 -0.006998317367716185 0.611206309156368 0.39553194029940425 0.16972219146191223 -0.16290871841961205
5.97 0.01 0.004637399807945139 0.011087320836842834 0.6384835141955234 0.3719935679687467 0.385277394926033 -0.07505110183439412
5.98 0.01 -0.0053715335832683845 -0.004235940421939501 0.6432594733799992 0.5395862568538228 0.18701796246328847 0.012614249145027344
5.99 0.01 0.001296062487452756 -0.009446105909787684 0.6352441317936689 0.22217024205201966 0.031927531687107547 0.03290379019219052
6.0 0.01 0.011035368331296284 -0.0012388226476162465 0.6166977771426158 0.4279078763556325 0.17905550817487392 -0.02910067406381634
6.01 0.01 0.01062744590715849 0.018593731243150072 0.6153376757153606 0.2522663022409861 0.16665591279018893 -0.23905974118490195
6.0200000000000005 0.01 0.027339427986517874 0.010966542291708459 0.6237090012486954 0.18087327888824997 0.03147740837229002 -0.0125350487505924
6.03 0.01 -0.01488918270664705 -0.005783751353223367 0.6141546587068868 0.390698716942963 0.26516122106057527 0.10488934388811343
6.04 0.01 -0.00025073450606150164 -0.008288075283250014 0.6308011669980067 0.32575611058848053 0.21530624559451278 0.037644962959058614
6.05 0.01 -0.007859651280008043 -0.017693470915277815 0.6479792127268316 0.3533382576795048 0.2719933170580557 -0.03528601196477398
6.0600000000000005 0.01 0.001261022592244366 -0.019729273682042497 0.6178154898964303 0.42052120924169045 0.2400470402751004 0.10555971126418758
6.07 0.01 -0.001892421583022094 0.0017472287995100222 0.6425033845163889 0.20439102437881254 0.29202743704158296 0.062423862205819115
6.08 0.01 0.003461236753600749 0.004417330073641611 0.6223659579458345 0.3418209422365824 0.39046229183729797 -0.03674895171323938
6.09 0.01 0.020475211030864575 0.019465968386074672 0.6232029955471787 0.29641623204620815 0.0852254393682057 -0.043409776435309314
6.1000000000000005 0.01 -0.0017185852715124262 0.013440547626335777 0.6422815002855485 0.31249515646641574 0.2773864322046862 0.08298685058857112
6.11 0.01 0.0025291649645853556 0.009977891193713728 0.6306569552060426 0.3235822994812214 0.18413456486721969 -0.10690343598711707
6.12 0.01 0.0009066890760746141 -0.0038801572689914927 0.6334955990838077 0.4239219579264757 0.29449321131337347 0.02519747888978226
6.13 0.01 0.007279392470580331 -0.008269070332810036 0.6348114667247337 0.25060424570984297 0.43246279259805953 0.19048339670821005
6.140000000000001 0.01 0.004324251076964616 -0.017888350786451596 0.6365533763014086 0.29612307863492726 0.12998231574188412 -0.04386471499614765
6.15 0.01 -0.0033558403330909616 0.006802461934999666 0.6196195076568017 0.25719508505336786 0.2484335406047563 0.010903999314970915
6.16 0.01 0.0029519665775257706 -0.011399630406581693 0.6426913107675356 0.26975052271726846 0.21707376967586217 -0.0008685545149922256
6.17 0.01 0.0004321159803792632 -0.001668054254380873 0.6328539713060128 0.37452374773802044 0.1559496610763187 0.0527888451065297
6.18 0.01 0.00930670025451534 -0.014554323090355316 0.6266850670263013 0.27655873800778463 0.3131142968275871 -0.15304541812187494
6.19 0.01 0.0017865008411151791 -0.002610588442932842 0.6416928414060885 0.39628323147961025 0.4898977036182439 0.059701768161627644
6.2 0.01 -0.004110636563223649 -0.0023389468629150183 0.6259465020548237 0.5156905296932288 0.07222954749540189 -0.0505264869755536
6.21 0.01 0.006184324382517385 -0.00029748333307149885 0.6236995308595144 0.39230885328688325 0.14833856871334214 0.0010115495221352157
6.22 0.01 0.015744488259156805 -0.005707023953866944 0.6121605307094578 0.22070522533871129 0.16649012607624697 0.12069026227784363
6.23 0.01 0.00883450614223266 -0.005596068585838939 0.6387075579322653 0.14397428226608133 0.26245843609912983 0.011318273126396838
6.24 0.01 0.0037756295939138504 0.014134916638840042 0.6329078893673269 0.1883793668949752 0.39252126986595903 0.04566816550358688
6.25 0.01 0.0046502587004816735 -0.002808451090531002 0.6304453327281958 0.1845508816063675 0.10878829479560853 0.11308981133060599
6.26 0.01 -0.004353575346374415 0.00039079690065858114 0.6068091156637002 0.31743675787610304 0.31804960517333497 -0.24420893918963632
6.2700000000000005 0.01 0.015190663310428723 0.006795577354797351 0.6355516429061439 0.2595049445954519 0.4185960976331855 0.11446889510613528
6.28 0.01 0.00571009272672428 0.004426804256973817 0.6214271395542307 0.2857969819211797 0.3489936316333822 -0.1257627406997857
6.29 0.01 -0.013350467076747845 0.008374083166771766 0.6173540733710609 0.2891218313707955 0.35233286556846977 0.07209156213985053
6.3 0.01 0.00696442391625006 -0.0011571912304625185 0.6364447516833803 0.28136063129816224 0.266701207751099 0.2059786056291118
6.3100000000000005 0.01 0.005155949287455004 0.012030634854540662 0.6322596520131274 0.24609287138956598 0.1794805071082812 -0.02214818743318238
6.32 0.01 5.138387875552974e-05 0.003738971516346752 0.6280798263667838 0.30552236177916997 0.34556784918350175 0.0505073879372561
6.33 0.01 0.0024744209878154915 -0.00423809637290219 0.6357672433274516 0.5163887101631901 0.3421879730556215 0.11253570717699737
6.34 0.01 -0.009189417656628588 0.00270993175390418 0.6222115130265228 0.41942251259689806 0.19718805248313592 -0.19369512754656745
6.3500000000000005 0.01 0.002210910750474928 0.005105681389286781 0.6333273691509324 0.26632901010705085 0.4714803016687858 0.15392007852118766
6.36 0.01 -0.0049688366845145335 -0.0026384675845846505 0.6308156010281513 0.21076008076665742 0.23645122127183574 -0.1166893258786516
6.37 0.01 0.0031972176290171496 0.011932027501505679 0.6102126698857142 0.26908934118784006 0.38881760132450194 0.016843082897089485
6.38 0.01 0.0027988344798211013 0.00038702602044083794 0.6213900373050868 0.2737224040622872 0.2892230298583629 -0.1732975122262994
6.390000000000001 0.01 0.01842532270719301 -0.013060366161231574 0.6313091038450234 0.26845661335031556 0.30533555133359946 -0.01418444646286665
6.4 0.01 0.004867445940234646 0.01133293295732116 0.6207097972170755 0.19020897162283337 0.4925107696120892 0.07626700616241597
6.41 0.01 0.0057772677867488085 0.0037846231694149265 0.6243002912622836 0.206191461456594 0.3345924048206997 -0.06547112263329645
6.42 0.01 0.0021802769649919536 -0.01527130269951735 0.6248076131088933 0.24583226287693896 0.387029695224513 0.14456886737704458
6.43 0.01 0.0009453534322693036 0.010821822406827431 0.6305808952004551 0.231554059744862 0.30835558395267726 0.03831354286613156
6.44 0.01 -0.0011577757375681574 -0.010741835710421784 0.6165163401270262 0.3904073609335398 0.37341970422430604 -0.08041234372850291
6.45 0.01 -0.0017336205813483615 0.011662884351632229 0.624521536431973 0.3094071665304494 0.41077073952845594 -0.09044235323617505
6.46 0.01 0.00464290607153142 -0.010361309585362837 0.6226305131942779 0.21442651204702742 0.3836552226064913 0.02149780890250038
6.47 0.01 -0.004597587273105285 0.002506036623957303 0.636126870297638 0.2788027097310848 0.19785303773376156 0.06492653451719653
6.48 0.01 -0.009218690352203147 -0.006916795210530252 0.6183299131483692 0.32342207197650663 0.18312948558951858 -0.14708208114999163
6.49 0.01 0.030062646799902337 -0.010288686674881845 0.6100100159351193 0.284720916763431 0.20372768619841644 0.21936926971742615
6.5 0.01 -0.004077657193971244 0.001249654376792047 0.6178811874352714 0.34115427840532875 0.2683906208994381 -0.08559292214617101
6.51 0.01 0.016047491352577235 0.003108942735088327 0.6458178594024179 0.0416455251936699 0.3786656957042609 0.014532186421816778
6.5200000000000005 0.01 -0.008047046779056675 -0.0017619017628112744 0.6384360083739028 0.21705269796656482 0.20901479824805538 -0.19602918808787842
6.53 0.01 -0.004705000476191442 0.0004814912241943711 0.6400207562822 0.17232930218570486 0.3012656197083634 0.06577793582250972
6.54 0.01 -0.0030484906314992882 0.018254645701556133 0.6289469582061867 0.3694644993768139 0.21330359235003124 0.0022238835536183706
6.55 0.01 -0.0035011330703920546 -0.013083258944153374 0.6209605626917519 0.38144368538537643 0.47770257794682064 0.050073468852576325
6.5600000000000005 0.01 0.0041459272046597325 0.010915547993556811 0.6296608007535255 0.23022658967476126 0.265704040043399 -0.033750892654140156
6.57 0.01 -0.016811987664138932 0.007374881370048991 0.6370818714661508 0.08937709917780626 0.4084017290771006 -0.07040487718858557
6.58 0.01 -0.008730574897803309 0.0007361692474348843 0.6506647223479387 0.3371194288468468 0.41648692494570183 -0.09019607027503328
6.59 0.01 -0.0007826458324731569 -0.015964366297934036 0.6115029753946581 0.1815896474080313 0.29895360516511515 -0.16163175198302074
6.6000000000000005 0.01 0.0004525267867354406 0.0017637617331339433 0.6319739075445207 0.29949696696648165 0.3510918501639006 -0.11967111830208521
6.61 0.01 0.007723352277820314 -0.006471871485094774 0.6168300629001054 0.22317036317724706 0.17880827271897404 -0.03784061342665982
6.62 0.01 -0.00322944384657376 -0.01540672156329693 0.6280962749052409 0.18323399368148346 0.3589887360656134 -0.0026743544301965553
6.63 0.01 0.0003723267182258067 -0.014894346446935902 0.6383280110522424 0.1461923574334067 0.1953609093188426 0.10838068947020892
6.640000000000001 0.01 -0.005102036258512771 0.015512019389655168 0.6135321706059794 0.1112950260237369 0.4203087128201609 0.03370308200742723
6.65 0.01 -0.023716554317935064 0.012394166908554188 0.6284333274820489 0.23189194257376644 0.2512015335570231 -0.25832004945497045
6.66 0.01 0.0107232829197428 0.002121412599004305 0.6367808582895731 0.3373771215896916 0.33793946331326963 -0.12191093612519895
6.67 0.01 -0.013583556844238863 0.0021744891230586496 0.6162371034730705 0.27433588357620703 0.4672273350144214 -0.21868528079334235
6.68 0.01 -0.009583347372008609 0.007690432057494219 0.6281575671626323 0.21529005614742025 0.48681952156191777 0.03526867967686632
6.69 0.01 0.013153001946942737 -0.011093567381382414 0.6379333177758287 0.2499802655120003 0.409429036485796 0.028079607549073383
6.7 0.01 0.013410809114386338 -0.0041470694247877525 0.6311274775258042 0.33877562516564386 0.37650380802542266 -0.2032200764058473
6.71 0.01 -0.009260962807325432 0.01696326029555766 0.6297166754841271 0.15764560798513588 0.2438206422140142 -0.018806362363782095
6.72 0.01 -0.008370668410634254 -0.003926136501178979 0.614543094929048 0.2703180627356296 0.47574225124545905 0.009168792866473482
6.73 0.01 -0.01687770833778411 0.009039199547102245 0.6319482021906869 0.2157683316336483 0.3364640351251188 0.10292811105581479
6.74 0.01 -0.00028008073546514705 -0.00030071292864593724 0.6488857790967135 0.1781277345464189 0.3146814585079842 0.010658274205156276
6.75 0.01 0.00766355576770548 0.001221840683149294 0.6507684400628219 -0.017771390209358945 0.5964893919958908 0.01936878354706445
6.76 0.01 -0.0022405892355764736 -0.003008408851046989 0.6131232718639327 0.042854204959636766 0.1679088270069179 -0.03632673804139949
6.7700000000000005 0.01 0.0005504873107531161 -0.002707458248435559 0.6445066505667205 0.1949095620409184 0.3892188578849507 -0.05515618166302644
6.78 0.01 0.014591405584973656 0.0014086232781456074 0.6210338579876579 0.2843681578876852 0.5359942899099774 0.07356133610670372
6.79 0.01 -0.0014948800655401593 0.004983722672440314 0.6261755630902228 0.12429775395122358 0.5186739703839323 0.0007663458042410003
6.8 0.01 0.005019180651045559 0.0008350153251432353 0.6388112328438206 0.1533939475048105 0.5012605054184621 -0.053314994495269254
6.8100000000000005 0.01 -0.01004561447854213 0.002227537529230696 0.6285349917932069 0.22461972653889445 0.3663745639401672 0.26406587324920644
6.82 0.01 0.0035864721429438697 -0.0026556958587352388 0.645687671787971 0.07441194948135693 0.22573531107224606 -0.16505318491487214
6.83 0.01 0.0009038370004408821 -0.0026357951486952664 0.6316567934451371 0.2813995533183528 0.40619134249439426 -0.16029139162472875
6.84 0.01 0.0012266684716270271 -0.006005504412227654 0.6239557113844159 -0.017202975546707966 0.3077444390226622 0.00317036965084795
6.8500000000000005 0.01 -0.004091162635349909 0.002269319473419737 0.6219630453643219 0.2734699231542102 0.3279854763838995 0.05142314389373381
6.86 0.01 -0.016747323317522468 0.00372117520019657 0.6368666516421639 0.1650987120237289 0.3435364460804958 -0.139307940963831
6.87 0.01 0.005665756233087571 -0.007839888434584998 0.6229560177205644 0.2854104633245046 0.29695321261843344 0.015059762502794734
6.88 0.01 -0.009083334100851772 0.012949992165056391 0.6327294565933217 0.2760549058281415 0.3431505091288537 0.08857621876088241
6.890000000000001 0.01 0.015292027423561281 -0.02041412321819799 0.6201488828465356 0.279035873121666 0.29324662834236886 0.03436980294830239
6.9 0.01 -0.014553280974828725 -0.002935671086222977 0.6262295656288828 0.13375241401015803 0.5936387486399299 -0.005034781765797236
6.91 0.01 -0.005763719968698531 -0.0019203667566611532 0.6327508876801893 0.2919492226428594 0.48897335646184215 -0.027917832967305822
6.92 0.01 -0.004648078662200183 0.02599883998008679 0.6327147473195662 0.26658410139470623 0.27551752159943665 0.03425323263557598
6.93 0.01 -0.007765627018039756 -0.022704344917958943 0.6320794018140917 0.2593914169850661 0.49501983283635853 -0.12095212505344542
6.94 0.01 0.01440308461604912 0.00020499639840483325 0.6357083760510002 0.17036228712364962 0.3598516085628619 -0.010686177857633355
6.95 0.01 0.004479313883072175 -0.008325836781438311 0.6409275206062723 0.05472622294393001 0.3257011634397159 -0.21485731199595437
6.96 0.01 0.005615940515005578 0.00744816393959675 0.6213819691313545 0.2857696584649674 0.3074937194723507 -0.04996252132530779
6.97 0.01 -0.011663278941716317 -0.007491418579050152 0.630921644328909 0.09462760862932815 0.49024106346662283 -0.050566345077861764
6.98 0.01 -0.0001952397603245767 -0.01033957463469771 0.6364018339720896 0.10147368759262788 0.34426404081450057 -0.2994989583316112
6.99 0.01 -0.016292222524734425 0.01644501488344424 0.6377499439552211 0.23708865074500604 0.5840089261197354 0.053027480595747335
7.0 0.01 -0.008642166195502558 -0.005599679548708823 0.643453753258309 0.22725624873708716 0.37799682780184646 -0.24901789657727416
7.01 0.01 -0.01825987891155072 0.011746685512552266 0.6310889872053067 0.14371888918816347 0.34674474934188265 0.0049142501335744755
7.0200000000000005 0.01 -0.004133093200943922 0.008285847204016454 0.6332576145803165 0.1366988777578869 0.24481975764050215 0.07966613611559506
7.03 0.01 -0.004823046196895305 -0.02139305034534345 0.6274599596202511 0.12752763756742402 0.32933361296133506 0.09627442601061387
7.04 0.01 -0.007988927001521536 -0.030188924245953794 0.6221070279164616 0.1592518918362637 0.34329402165216727 0.0722690021295936
7.05 0.01 -0.01498467168635846 -0.0037436466324245444 0.6159800605571638 0.12619179885923093 0.4957037652443994 -0.06888960770925771
7.0600000000000005 0.01 0.0001518955125142263 0.009159281754799284 0.6364471226124137 -0.03869884600305487 0.30631487013330605 0.01302329392724628
7.07 0.01 0.010984754350949248 0.0014084294743666246 0.645832487100612 0.14662783734636198 0.3279884419790895 0.04097944686664117
7.08 0.01 -0.006856836966709928 -8.451594005457619e-05 0.6345010430213207 0.24021764657083125 0.2152670799428303 0.11850935613111586
7.09 0.01 0.0031528790792123267 0.003335400393459009 0.6082679345925671 0.17916675323637482 0.36273063668660416 -0.13783315855700826
7.1000000000000005 0.01 -0.00712387526201735 -0.009357521173801116 0.6263611335868976 0.18322802663457288 0.45770792599915905 -0.141688792357368
7.11 0.01 0.011159245130192619 2.928736399567174e-05 0.6166711586574446 0.14536088064378017 0.43467052053482835 0.02889314334812805
7.12 0.01 0.004912674290622081 0.0029290108397740018 0.6227385965240627 -0.01964874933676805 0.4083434396973576 0.10379151794059083
7.13 0.01 -0.009945946319032523 -0.00783712783745691 0.6236433635590617 -0.05651515390820806 0.2515059129815306 0.06390846498360021
7.140000000000001 0.01 -0.028621768191674814 0.02044722840407414 0.6262283402467225 0.03268086863202456 0.37254591962637695 0.06962040740386619
7.15 0.01 -0.01647902487128835 -0.0013467651800549638 0.619433950208313 0.06251098346711016 0.4353361745300712 -0.10542632223043265
7.16 0.01 -0.009704773142644587 -0.006699014020703164 0.6220555440810631 0.11079524063062146 0.3363577352038125 0.21397873140158685
7.17 0.01 -0.014790854395533556 -0.023016068576136636 0.6197043893923752 0.041134291881950814 0.5192011886082006 0.03688445041588652
7.18 0.01 0.00328592639476721 -0.013075783060515057 0.6512712352822465 0.17922162338344777 0.3190249851977864 0.07768792675138823
7.19 0.01 0.006322993710533173 -0.002719240966278373 0.6182287942329927 0.2041655639839017 0.45768173770117027 -0.0672806693604022
7.2 0.01 0.002113311967738487 0.008581822623630518 0.6171572173135806 0.08763940993283127 0.6171916514328956 -0.12331960618566762
7.21 0.01 -0.020918312962297708 0.0031729230280327994 0.6163582288656926 -0.06670154275915868 0.35351801523040033 0.13378217004251727
7.22 0.01 0.002899795176489544 0.010375811237460217 0.6308543817037491 0.012938950100254386 0.4739263527867303 -0.05289180475849786
7.23 0.01 0.015558014528494679 -0.01664710198253997 0.6218289778624222 0.10438335290061512 0.43400277799381193 0.14545475392354482
7.24 0.01 0.02127987613037068 0.0040751604598147865 0.6315100396627088 0.03145079593546953 0.4971102994911061 -0.04409399865555216
7.25 0.01 -0.001048274713472678 0.0007008171498943032 0.6291700086480422 0.0742179847642661 0.49950111268752506 -0.09944017433531392
7.26 0.01 -0.0018986563931346493 -0.005159935375521129 0.6188156424334842 -0.05095320133227891 0.26565765074054043 -0.08629994637729385
7.2700000000000005 0.01 0.008119797424906343 0.01636421677107967 0.644621185416428 0.17500029999054614 0.2448693428174781 -0.27052837115013445
7.28 0.01 0.006343283032558817 0.014044840658292802 0.6153753325210962 0.2891701871693975 0.2760187619871074 -0.14864917407272787
7.29 0.01 -0.00462771569683305 0.0021756721978542348 0.6286403358104783 0.0204770102329265 0.5194757407545226 -0.0214333603077275
7.3 0.01 -0.00609038418074509 -0.010635447209164331 0.6282409059128548 0.004223424568056848 0.49796503804241155 0.06145218704537543
7.3100000000000005 0.01 -0.010611117952712322 0.005053560928982182 0.634226002993661 0.03279543298501183 0.44640036910488423 0.010437722828058006
7.32 0.01 0.0054814207774936475 0.013869039365089939 0.6340309336718983 0.07145288931972836 0.4384525577137046 0.16525245123867383
7.33 0.01 0.001969480582330461 0.012386614411839173 0.6245130137629842 0.037603903169628194 0.22310371668082354 -0.05285306177398294
7.34 0.01 -0.006324420577847383 -0.0054176593119555265 0.6266255525536828 -0.08391176843474249 0.34793243077072333 -0.11232879246236163
7.3500000000000005 0.01 -0.00787803468883802 0.009687673481430263 0.6391161212020617 0.2534762245953673 0.3500122160413613 -0.12390840039813429
7.36 0.01 -0.0026840306799271315 0.006603500503036874 0.6340403394060258 0.008770091707504736 0.35909820207913584 0.07275027986108794
7.37 0.01 -0.01052501298762287 -0.010118962301171848 0.6236875134811419 0.09381921534864605 0.545848239231522 0.2058789828617078
7.38 0.01 -0.011580960673974903 0.0034352742259870744 0.6162628590117855 -0.02072962070969266 0.43112048319268786 0.04032931722095445
7.390000000000001 0.01 -0.008890886719413618 0.0063196569833898165 0.6279479032745348 0.1436867442480002 0.43931579653847286 -0.04308103939046465
7.4 0.01 0.00451161713059379 0.007378044209276014 0.6275473366096141 0.08727954567094771 0.22183522165032518 0.11346315668087821
7.41 0.01 0.0026127506663674704 -0.006979631407294401 0.6150361473473592 0.043606089645294964 0.30947436844864235 -0.0570133800708852
7.42 0.01 -0.0017610142520383624 0.013384001077384943 0.6436823985657962 0.16593399901077943 0.44104522838708743 0.2068286754942053
7.43 0.01 0.010771461601278794 0.012649373375956776 0.6283556086604053 0.15873100649815264 0.289033614877117 0.0747309592041488
7.44 0.01 -0.0012779440174698464 0.009205156038936409 0.6138179078988039 0.008538411128773614 0.3127429989982038 0.08079549539124493
7.45 0.01 0.010273869846428193 0.000560139621183134 0.6264016802217013 0.021297769196353296 0.5151976299198594 0.04335775948858213
7.46 0.01 0.002227219315322717 -0.006619151962406793 0.6228258525516673 0.04037501659156286 0.3881706344156123 0.08045101055173885
7.47 0.01 0.005288333419655015 0.002800267065188758 0.6217933854827267 0.07548226192175099 0.3379501950722993 0.16168950188887063
7.48 0.01 -0.0014296514945232157 0.006615913691402574 0.6227935013944462 0.07520786087105902 0.390431585653573 0.11230968192219698
7.49 0.01 0.0038110532058224524 -0.02902130422576721 0.6167505416828819 0.0175885523129576 0.3459871287126446 -0.0540626497873079
7.5 0.01 -0.005697895380211893 -0.002532984782749558 0.6213928068410602 -0.021858408102222327 0.5337411567991281 0.06210485399057706
7.51 0.01 -0.012872187699502989 0.003926230803442419 0.6459691552717902 0.028211805304681974 0.3774429354344923 -0.017576520275806525
7.5200000000000005 0.01 -0.0018525279568596849 -0.01866961272789056 0.6140655791688666 0.046060459415547254 0.31714576571777536 -0.017285563930256594
7.53 0.01 0.0071587413109993805 -0.0017618881044257763 0.6327455244718739 -0.07864601388808769 0.31124506380844524 0.12859168647798788
7.54 0.01 -0.001618181998855312 -0.005987501437984685 0.6512160270996371 -0.12700832877024465 0.4064855174859556 -0.08776949364771075
7.55 0.01 -0.009905866732145364 0.002814223238435895 0.6380805399020901 -0.08320587443767716 0.5709177617934964 -0.013350310033644544
7.5600000000000005 0.01 -0.0018443375550779826 -0.012735453247279229 0.6290552258678928 -0.02201283429702922 0.47686584978880225 -0.17769659537729454
7.57 0.01 -0.016715034563102173 -0.01654740115863 0.640137886770944 0.10119317489772325 0.45383760632933695 -0.0787558273058307
7.58 0.01 -0.008891207629215057 0.008242475823527589 0.6087460317062862 0.03451850266575642 0.40203840263266544 -0.09002261725103394
7.59 0.01 0.0010883235244215244 0.01291555150270822 0.6283028943093995 0.05053545284325135 0.31064114626149114 -0.09785866827623026
7.6000000000000005 0.01 0.0039051730855461267 0.003302050287655101 0.634470694493354 -0.009030754615064533 0.40856385497121 -0.02730990718367667
7.61 0.01 -0.0035599925468618493 -0.0026288118503644585 0.6294649896467606 -0.05356313501170561 0.42284314472955126 -0.24157989770267851
7.62 0.01 -0.009585558145220425 0.008852758336965992 0.6347066340967601 -0.12424293697062996 0.5625891684435536 -0.03206026733583619
7.63 0.01 -0.0015269638385034853 -0.005225605538369667 0.6155247056842107 -0.027851002827976354 0.5121222125997218 0.023726010005015757
7.640000000000001 0.01 0.0035488801662754595 0.008076581374994984 0.6231013010316808 0.08251473543685667 0.39916162064965605 0.02464699673493508
7.65 0.01 0.007902318686457138 -0.019898585183848263 0.6354778662204916 0.1352481344349894 0.3468583506182603 -0.16276474828237858
7.66 0.01 -0.035548490371900845 -0.005992786774833166 0.6334029293936692 -0.013844976860830187 0.4735777918920188 -0.16228946279271908
7.67 0.01 0.00014953716280771307 -0.000951940497049462 0.6261569382709448 -0.18475952324032793 0.3966896000616506 -0.06954461619286928
7.68 0.01 -0.0049326388855251745 -0.002987250958579357 0.6086414030759392 -0.047819383519928996 0.5087758059993694 0.0024871511092920805
7.69 0.01 0.0017469420083889502 -0.0004636493585887846 0.6211903102926802 -0.08912038828920646 0.2524992776822662 -0.007495583071853338
7.7 0.01 0.008433810180260124 -0.005310679735539078 0.6221441050280526 -0.11967708291596907 0.40466412014051234 -0.01929341578859813
7.71 0.01 0.007522323771288584 0.018647215322893654 0.6293903715043624 -0.06192017107556382 0.37326939150627303 0.18679832670902083
7.72 0.01 -0.013434125890867206 0.00018332993926100738 0.6233251006920885 -0.10841663290519502 0.34804567588673596 -0.13503207666177983
7.73 0.01 0.019698660981325604 -0.004431334792098861 0.6233962651980048 -0.07752038593262545 0.3680634367186955 -0.01844114559583176
7.74 0.01 -0.015157406893751713 -0.001923525851949765 0.625715227929217 0.0015075250198649387 0.5431425566780371 -0.006296477297642482
7.75 0.01 -0.0058754894257572925 -0.006814995226563718 0.6263747110610012 -0.2744038494127793 0.4054895983521943 -0.13545462506061143
7.76 0.01 0.011849394400761111 0.003486714183750406 0.6122359932647433 -0.15237763574133428 0.33980981039423713 0.11994610396699304
7.7700000000000005 0.01 -0.00892785910189233 0.013381064350717382 0.6247723586923065 0.006300346455566624 0.48882648827276026 -0.05750879545785881
7.78 0.01 0.0028467781720052016 0.009799617263848065 0.6144033908157719 -0.10953884432548688 0.3258901862827768 0.13984169285375625
7.79 0.01 -0.01168268376614139 0.00479150773762274 0.6379444361677971 -0.03799980255109498 0.468419653533795 0.005633422906636338
7.8 0.01 0.006484767639925397 0.004221395320601991 0.6143600100496709 -0.062121572671073516 0.2815748981048709 -0.011099211051237408
7.8100000000000005 0.01 -0.005285738971165391 0.0006202696830022301 0.6212485060282946 -0.16383355742531597 0.3866385075106773 0.0736220425822569
7.82 0.01 0.001997005418171478 -0.0016809508237998895 0.6230956231728076 -0.2533807701736283 0.4842236364602621 0.11482210729375748
7.83 0.01 -1.5141465267937455e-05 -0.01096909136767295 0.6438522633032336 -0.1971865569046072 0.23165986559045892 -0.09995184169803736
7.84 0.01 -0.0004651511182441425 0.00016589834532970132 0.6427344886986079 -0.14917177083388045 0.37997166747554945 -0.06855564982838329
7.8500000000000005 0.01 0.006369814260426652 -0.0070784966750109144 0.6364913559744203 -0.05666237672981235 0.43323627233459067 -0.022251127114709557
7.86 0.01 0.0070439355664884155 0.009386115282680322 0.6226809215959208 -0.00921746963002891 0.3548714194925709 -0.0777239466812798
7.87 0.01 -0.005533113255598666 -0.002634179934986487 0.620217699984175 -0.12852357480356652 0.3951168430011306 0.0742775872573363
7.88 0.01 -0.0072436054158159895 -0.015209191624780148 0.6281344675485905 -0.18849383244672624 0.42927939442589386 -0.11139112721908113
7.890000000000001 0.01 -0.0005152219472271102 0.007937782630534178 0.6424101616333895 -0.013099220956623428 0.298053868829065 -0.12679546616333232
7.9 0.01 0.00456112396690062 -0.0013992909163324675 0.6268336518359975 -0.23707092552018197 0.2764900045865436 -0.04063752711850474
7.91 0.01 0.0070510723173559 -0.014749912144172738 0.6267384871731145 0.022926115000003036 0.26230594849499983 -0.06490750926398163
7.92 0.01 -0.022166894928300228 -0.004058798112717271 0.6363416220127798 -0.23068728044310158 0.4546130104016782 0.1337364630319843
7.930000000000001 0.01 -0.009446800796832616 -0.012615032764748726 0.6290172873180443 -0.21981752166850504 0.5333698968601668 -0.03594150501587706
7.94 0.01 -0.0168137537410377 0.019383527483598933 0.6216828958662999 -0.10446086954935145 0.38430201510882533 -0.061509323567048496
7.95 0.01 -0.008424238583056158 -0.011971788952319016 0.6348873575558571 -0.1369844904213943 0.3226134374187915 0.10660863967972367
7.96 0.01 0.00708097620427562 -0.00394157916924387 0.6237458743239808 -0.25093485835824125 0.37348948476307875 -0.0558533392482771
7.97 0.01 -0.01948157110072847 -0.0023305497686741494 0.638308889393833 -0.18892438024214733 0.36825098732424644 -0.15113078203862812
7.98 0.01 0.000797139919458807 -0.008301774167855474 0.645229684458683 0.06023330457939845 0.1481415192365889 -0.10569489449734736
7.99 0.01 -0.006850247768419991 0.00936499489580417 0.6162739496530638 -0.17490238502213878 0.40085095182986996 0.02443721457127343
8.0 0.01 0.00084367146803117 0.014299868805828656 0.6332356352745804 0.003846638040231512 0.33892883249853684 -0.11674512260881478
8.01 0.01 -0.010699776082725706 0.006806163112497698 0.623789952223474 -0.22469117710720501 0.4589327829856316 0.0021861895079519273
8.02 0.01 0.013413478346758424 -0.0022118726851161974 0.6365433251131035 -0.008049642504354915 0.3395922916882381 0.009977560278719079
8.03 0.01 0.009203925614772176 0.013926552177864475 0.6203072601519369 0.08881683518569869 0.5073738968426696 -0.1022741020244245
8.040000000000001 0.01 0.0004441267079356545 -0.003802767463928426 0.6445619210416457 -0.021988166868993964 0.3615464363819448 -0.07680383612459558
8.05 0.01 0.0040490944009406935 0.008787295530482284 0.6212389687448944 -0.18250777881172697 0.29757068739589754 -0.03777796773013947
8.06 0.01 -0.013453683407220208 0.0003650916912897614 0.6390359954811725 -0.21766067532339903 0.4842662814837534 0.08677073474164336
8.07 0.01 0.0011530291226674342 0.011173786386980689 0.6304682082703743 -0.050365197693425776 0.3831373785773871 -0.10858237231781283
8.08 0.01 0.0008834274459579094 0.01280188190652547 0.6119892498354208 -0.39629870053068783 0.3921813654980493 0.2356200076878325
8.09 0.01 0.018072871715940856 -0.0031280714766187268 0.6316375387710731 -0.18686835267849386 0.2901593560547654 0.052431220243011216
8.1 0.01 0.003184248528808494 0.021346851869877403 0.6310532690158221 -0.11564240900311422 0.2763175945735285 -0.12670734518649937
8.11 0.01 0.0014103681739880086 -0.0030808015530251758 0.6244232935863056 -0.22181021623547462 0.2855535417494837 0.08149598331011311
8.120000000000001 0.01 0.004081608723677907 -0.0004643224578434041 0.6178737425411027 0.02671239253165772 0.33065091580681144 -0.020830519555311754
8.13 0.01 0.002364487179955197 -0.0071174550412914026 0.6323423486398156 -0.18537473731400256 0.30966300122580864 -0.1658978130649242
8.14 0.01 0.013302408778487426 0.018367803244361765 0.6207137052112189 -0.13783974215624664 0.40875575832951183 0.016417972518024727
8.15 0.01 -0.01275014679857543 0.0005973260291037092 0.6278294545626171 -0.29515646137037543 0.3865342623210223 -0.05694488271074824
8.16 0.01 -0.014144406524169538 -0.001218426003970883 0.6225760503015765 -0.05232192366864066 0.5062789760370048 0.12191126113306541
8.17 0.01 -0.004696347969614476 -0.004873970583756626 0.618162025925017 -0.11476390984634038 0.33850403639193105 0.006014455690143361
8.18 0.01 -0.0006695331092818002 -0.004909001924781379 0.6084238696827416 -0.1024022901014634 0.2448738114646073 0.14478486264150744
8.19 0.01 0.004193773366230549 -0.006846057316935876 0.6398507713746995 0.0013049870384442275 0.39578013688107017 -0.00781015432362321
8.2 0.01 -0.0019144794963312753 0.01526254373172357 0.6293994938317016 -0.1561753586199 0.477485736687617 -0.0533002127685018
8.21 0.01 -0.01127890820536259 -0.0010986193444687577 0.6295089702733139 -0.1797203280439405 0.3618328356288587 0.010780738947507782
8.22 0.01 -0.002355532931659905 -0.014843828121798608 0.6218409076379121 -0.018268343245835594 0.35234722096080445 -0.06461662257307756
8.23 0.01 -0.00833203884843354 -0.010148762674765424 0.6201721319665056 -0.1424480687712994 0.4542618617008821 0.0707135755025599
8.24 0.01 -0.005365428960805875 0.005895068835265059 0.6306332200734889 -0.2682254301985379 0.3280775062603589 -0.029141717102720607
8.25 0.01 -0.013707838466547148 0.0018262325530478594 0.6341021881015594 -0.05882131101501388 0.2657616647225027 -0.030151234005856176
8.26 0.01 -0.01321437687099741 -0.002926893061018609 0.6177360508746615 -0.18078303957339323 0.4856861059688752 -0.08404308449222717
8.27 0.01 0.002318454908063418 0.006791234933684808 0.6359556358096178 -0.33091505496359014 0.5560122733825641 0.03981277896348189
8.28 0.01 0.005820197259976924 -0.0008720540511083191 0.6286164231903564 -0.28873446640123707 0.37683216526330626 -0.09853426889811254
8.290000000000001 0.01 0.012667065159024422 0.0016278762298559816 0.6164437329191799 -0.16918904819769182 0.26617051433583006 -0.0013074806415933357
8.3 0.01 0.005983458720404731 0.0001696161482583278 0.6389139276278616 -0.10959358227021396 0.2997598843616423 0.005523333579994381
8.31 0.01 -0.015986793593599433 -0.011845741405103288 0.641256365812433 -0.02531145527755116 0.22643694623805843 0.0842646031494434
8.32 0.01 0.015055913324398826 0.019425810897702123 0.6389051017393224 -0.10670170812766645 0.4468320177279992 -0.032084470872457
8.33 0.01 -0.010915604985033012 0.0036236896482236087 0.6466667111488223 -0.28481947291902426 0.32094548340411927 0.0779096992417373
8.34 0.01 -0.0028512918434763818 0.005678932896094378 0.6271117115214373 -0.33580444442598195 0.4309610919345786 -0.06967338076795479
8.35 0.01 -0.003110777205296409 0.0027260025251561954 0.6262816726957268 -0.4702803313521402 0.28031028718424866 0.05893655959146208
8.36 0.01 0.0021501450678434062 -0.008051152815017351 0.628197434449502 -0.3518697817029736 0.44170355711407056 0.005311311485482841
8.370000000000001 0.01 -0.00010891095667340995 -0.005236734750785721 0.6462586365439194 -0.33183565907271173 0.4229471019042799 0.07268554877949943
8.38 0.01 0.006833292897426067 0.004205542098090299 0.6321196656458874 -0.22406876660893554 0.35809675830412563 -0.2402954231647641
8.39 0.01 -0.022911072217082117 0.021315649805300475 0.6392201644768855 -0.2354633195796145 0.1959742220182375 0.003423532987320842
8.4 0.01 0.0024497961259550634 -0.005384200129582914 0.6297262373155175 -0.2882241428138595 0.4047174099811757 -0.20121936922286246
8.41 0.01 0.009996235664686189 -0.0049880031552254215 0.6325558950399506 -0.06490148566487491 0.31472129832766493 -0.19496251761101932
8.42 0.01 -0.011308839164322224 -0.018833832896852525 0.6515945492025804 -0.3292143564453246 0.21678036597852557 0.014746966497375167
8.43 0.01 -0.009199311408848665 -0.022036807138425357 0.6274620715057712 -0.3026258854075734 0.3121123715184911 0.08431998705290343
8.44 0.01 0.006618270448945522 -0.004143392688433668 0.630891851229168 -0.2965160686099843 0.39635235350065867 -0.0956982533538068
8.45 0.01 0.002853711344635214 0.01859523945815934 0.6258449284080941 -0.1296708103984766 0.11539808438407534 -0.00029238522014800783
8.46 0.01 0.003403613236059981 -0.010082948907221065 0.6231862719941133 -0.22251102037554793 0.5362929624349256 0.018152012383938695
8.47 0.01 0.0010245063250961504 0.01070536813584801 0.6425377443189788 -0.19675910173570132 0.23723643989980348 -0.09021971427460881
8.48 0.01 0.0006559319764278781 -0.0021085866647961036 0.6347089082663908 -0.28578685064346593 0.27736505744956397 0.20763523308378234
8.49 0.01 -0.0015121823987427757 -0.007114719801462153 0.6186213198218803 -0.3559415306117162 0.407769564376421 0.05612106216058321
8.5 0.01 0.0025375752627380434 -0.008621421730025529 0.6388923979712682 -0.13058406856647403 0.1447029333575788 -0.1727807692198906
8.51 0.01 -0.01216789653819338 -0.0073658127854374965 0.6223509112278124 -0.21769124102401416 0.2196953636669351 0.002477956713078802
8.52 0.01 0.006761557069463611 -0.011194327222483405 0.6317242679800059 -0.2705859838472575 0.3239349662540097 0.20443289936656153
8.53 0.01 0.0006336903765065366 0.008729763408748304 0.6180912708852178 -0.18745853450757488 0.26528199765185995 -0.13746056062938425
8.540000000000001 0.01 -0.002066594521114991 -0.007200681930602256 0.6102732164850172 -0.19355692419620207 0.3900849462867467 -0.01712242630178525
8.55 0.01 -0.0009175151859922018 0.030349765512389406 0.6302781013202488 -0.2962293243784103 0.3199203769419411 -0.089068448987896
8.56 0.01 0.014641239041923909 0.0037439890445516845 0.6343682536394349 -0.24730584413772996 0.244887060375718 0.01631835451583453
8.57 0.01 -0.016489037393958527 0.01037223659901479 0.6229231757813499 -0.27329370762255334 0.2696527252287161 -0.13386519918323067
8.58 0.01 0.0027699633743374715 -0.006307440109385398 0.6231298621723822 -0.25496310670384903 0.4115639180922979 -0.05209922015518231
8.59 0.01 -0.014971150725207006 -0.0009747903957151359 0.6285320982605421 -0.09672322201016634 0.36476062522132996 0.11160040215226677
8.6 0.01 0.00875950750251668 -0.009127593941577949 0.627901997201634 -0.09809338609019613 0.407139185735026 -0.17705478791226217
8.61 0.01 -0.011213608492752374 -0.015223306617784663 0.6317664177456258 -0.19342829689758778 0.3442742711364888 -0.11969689788208243
8.620000000000001 0.01 0.0023297152202952703 -0.011726301842394775 0.6255926970445836 -0.3167429893126621 0.2911871198125802 0.058280381687455196
8.63 0.01 0.0036456955236720905 0.009404478590168283 0.6195365793433261 -0.1613958418383789 0.25500217567096395 -0.16115602882309182
8.64 0.01 0.004399147702437684 0.0005536343595232525 0.6275569902495058 -0.2402620856249646 0.5667877012094489 -0.10471355773997776
8.65 0.01 0.0046775599907685275 0.005335430577293107 0.6364287249879448 -0.3020743373092557 0.21762425079058376 -0.05117801976728196
8.66 0.01 -0.004099226587906214 -0.010315792729596129 0.6327547052659119 -0.32002144127349547 0.37804891863749246 -0.084659480436238
8.67 0.01 -0.0018813171812323971 -0.003961744648503832 0.6364501524551245 -0.27102970287808775 0.23293916963201935 0.14060971957893914
8.68 0.01 -0.013734264542058209 0.0019399370902688146 0.641396266517 -0.3628995531306813 0.27250679806758416 -0.014996855829156469
8.69 0.01 0.0046359773245220675 -0.001062189829914151 0.6260075767700134 -0.34121160575074777 0.16097879510092414 0.1085131632805326
8.700000000000001 0.01 0.0020760620616000103 -0.005453729002844791 0.6297608257769849 -0.3736030645873964 0.018098001273713027 0.08133954532243624
8.71 0.01 0.008108500296091484 -0.011142838578321124 0.6360411279937004 -0.21448419831212667 0.4231175575197196 0.12219111893872799
8.72 0.01 -0.005852742377919419 0.012634167261409437 0.6440719251270319 -0.3430420082377325 0.3352774457477339 -0.06668973093863535
8.73 0.01 -0.00041508587828395917 0.005740175388199367 0.6338902817135406 -0.4080823989876119 0.31246039987122004 0.032882968604653305
8.74 0.01 0.017008524186464195 0.016376204160113643 0.6312144852667745 -0.08084599522994171 0.1765705490003628 -0.01625055229545585
8.75 0.01 0.003499488543230816 -0.005627056166180389 0.6267610658414563 -0.39526364413332654 0.30901235464932175 -0.023202316379233697
8.76 0.01 0.0063750597336629305 -0.010327508872799894 0.6159622365658485 -0.20104580994997218 0.25382166311628596 0.0202880001900713
8.77 0.01 0.0012979722324847765 0.0007198714611184198 0.6322392245289051 -0.15704349557103228 0.29810019880300603 -0.036345274543245494
8.78 0.01 0.02793884474451226 0.006725480760938275 0.6287170591810672 -0.4405608953890635 0.30050558993850424 0.044830753409522056
8.790000000000001 0.01 -0.0009234542931734741 0.005313947692823182 0.6324710749492607 0.010262655527698727 0.32969233997612674 0.06249699074571348
8.8 0.01 -0.010299713034767677 0.008096848175073768 0.6419309777240183 -0.23380706438209187 0.2406764028438183 -0.031429927763847676
8.81 0.01 0.008427161970803222 -0.0007940252910695335 0.6380541632989211 -0.1878026212991492 0.23218898288779832 -0.04606471806789794
8.82 0.01 -0.008116551659521878 0.003342007359368812 0.6355403657843579 -0.3102048568655535 0.4471817484261682 0.02882911103835651
8.83 0.01 0.015382140874319482 -0.019666808772917745 0.6242736456373823 -0.2583642748508283 0.27332362569063823 0.006352345012201878
8.84 0.01 -0.013698354083620023 -0.0018238993826012334 0.6338641788945399 -0.3072020960478687 0.27607997994150013 0.006243690402594952
8.85 0.01 0.009578337187871159 -0.0044958055910952945 0.6071122579907956 -0.23936574099448465 0.2076334602396 -0.036898735133898325
8.86 0.01 -0.023745563748535363 -0.009609243720751672 0.6326943194853252 -0.31042727435286516 0.39718409279379996 -0.13451732859240326
8.870000000000001 0.01 0.0052088335875600305 0.009121393767037465 0.6343244513369403 -0.28278597260323807 0.16137176893719296 -0.06311805092724933
8.88 0.01 -0.01155890179711432 0.003010241577070336 0.6201863506609769 -0.27876815014020073 0.23961553627421733 -0.08660096625332948
